timeMS,CH,CLE,CRE,aX,aY,aZ
3574,-0.9137,1.8309,2.1848,0.00,0.00,0.00
3583,-0.9149,1.8335,2.1844,0.00,-0.12,0.47
3592,-0.9147,1.8348,2.1863,0.00,-0.12,0.47
3601,-0.9157,1.8321,2.1868,0.00,-0.12,0.47
3610,-0.9134,1.8333,2.1846,0.00,-0.12,0.47
3619,-0.9133,1.8331,2.1840,0.00,-0.12,0.47
3628,-0.9150,1.8335,2.1858,0.00,-0.12,0.47
3637,-0.9147,1.8335,2.1858,0.00,-0.12,0.47
3646,-0.9153,1.8313,2.1856,0.00,-0.12,0.47
3655,-0.9141,1.8319,2.1860,0.00,-0.12,0.47
3664,-0.9141,1.8325,2.1849,0.00,-0.12,0.47
3673,-0.9128,1.8336,2.1865,0.00,-0.12,0.47
3682,-0.9131,1.8329,2.1862,0.00,-0.12,0.47
3691,-0.9159,1.8326,2.1864,0.00,-0.12,0.47
3700,-0.9140,1.8335,2.1860,0.00,-0.12,0.47
3709,-0.9159,1.8299,2.1831,0.00,-0.12,0.47
3718,-0.9143,1.8310,2.1869,0.00,-0.12,0.47
3727,-0.9154,1.8347,2.1860,0.00,-0.12,0.47
3736,-0.9124,1.8318,2.1861,0.00,-0.12,0.47
3745,-0.9166,1.8296,2.1854,0.00,-0.12,0.47
3754,-0.9147,1.8313,2.1850,0.00,-0.12,0.47
3763,-0.9153,1.8322,2.1834,0.00,-0.12,0.47
3772,-0.9124,1.8341,2.1867,0.00,-0.12,0.47
3781,-0.9123,1.8333,2.1857,0.00,-0.12,0.47
3790,-0.9168,1.8334,2.1858,0.00,-0.12,0.47
3799,-0.9144,1.8322,2.1866,0.00,-0.12,0.47
3808,-0.9134,1.8322,2.1872,0.00,-0.12,0.47
3817,-0.9129,1.8336,2.1835,0.00,-0.12,0.47
3826,-0.9144,1.8330,2.1839,0.00,-0.12,0.47
3835,-0.9146,1.8326,2.1853,0.00,-0.12,0.47
3844,-0.9131,1.8321,2.1849,0.00,-0.12,0.47
3853,-0.9134,1.8318,2.1846,0.00,-0.12,0.47
3862,-0.9128,1.8312,2.1842,0.00,-0.12,0.47
3871,-0.9155,1.8329,2.1871,0.00,-0.12,0.47
3880,-0.9133,1.8332,2.1862,0.00,-0.12,0.47
3889,-0.9160,1.8326,2.1859,0.00,-0.12,0.47
3898,-0.9143,1.8323,2.1858,0.00,-0.12,0.47
3907,-0.9146,1.8349,2.1856,0.00,-0.12,0.47
3916,-0.9121,1.8322,2.1869,0.00,-0.12,0.47
3925,-0.9133,1.8334,2.1865,0.00,-0.12,0.47
3934,-0.9123,1.8308,2.1859,0.00,-0.12,0.47
3943,-0.9152,1.8327,2.1846,0.00,-0.12,0.47
3952,-0.9132,1.8325,2.1865,0.00,-0.12,0.47
3961,-0.9136,1.8323,2.1881,0.00,-0.12,0.47
3970,-0.9151,1.8344,2.1880,0.00,-0.12,0.47
3979,-0.9128,1.8326,2.1867,0.00,-0.12,0.47
3988,-0.9143,1.8312,2.1843,0.00,-0.12,0.47
3997,-0.9129,1.8322,2.1857,0.00,-0.12,0.47
4006,-0.9146,1.8341,2.1853,0.00,-0.12,0.47
4015,-0.9153,1.8307,2.1872,0.00,-0.12,0.47
4024,-0.9129,1.8326,2.1863,0.00,-0.12,0.47
4033,-0.9149,1.8318,2.1859,0.00,-0.12,0.47
4042,-0.9148,1.8318,2.1850,0.00,-0.12,0.47
4051,-0.9137,1.8333,2.1857,0.00,-0.12,0.47
4060,-0.9143,1.8332,2.1839,0.00,-0.12,0.47
4069,-0.9144,1.8314,2.1855,0.00,-0.12,0.47
4078,-0.9141,1.8324,2.1858,0.00,-0.12,0.47
4087,-0.9134,1.8339,2.1847,0.00,-0.12,0.47
4096,-0.9140,1.8310,2.1873,0.00,-0.12,0.47
4105,-0.9112,1.8331,2.1862,0.00,-0.12,0.47
4114,-0.9143,1.8326,2.1864,0.00,-0.12,0.47
4123,-0.9144,1.8327,2.1837,0.00,-0.12,0.47
4132,-0.9133,1.8320,2.1861,0.00,-0.12,0.47
4141,-0.9137,1.8338,2.1842,0.00,-0.12,0.47
4150,-0.9159,1.8320,2.1863,0.00,-0.12,0.47
4159,-0.9126,1.8314,2.1857,0.00,-0.12,0.47
4168,-0.9136,1.8325,2.1819,0.00,-0.12,0.47
4177,-0.9135,1.8317,2.1864,0.00,-0.12,0.47
4186,-0.9148,1.8333,2.1857,0.00,-0.12,0.47
4195,-0.9137,1.8336,2.1853,0.00,-0.12,0.47
4204,-0.9127,1.8334,2.1863,0.00,-0.12,0.47
4213,-0.9154,1.8328,2.1854,0.00,-0.12,0.47
4222,-0.9141,1.8318,2.1853,0.00,-0.12,0.47
4231,-0.9136,1.8337,2.1856,0.00,-0.12,0.47
4240,-0.9136,1.8336,2.1866,0.00,-0.12,0.47
4249,-0.9150,1.8334,2.1846,0.00,-0.12,0.47
4258,-0.9146,1.8342,2.1860,0.00,-0.12,0.47
4267,-0.9136,1.8322,2.1854,0.00,-0.12,0.47
4276,-0.9138,1.8323,2.1859,0.00,-0.12,0.47
4285,-0.9139,1.8342,2.1837,0.00,-0.12,0.47
4294,-0.9154,1.8336,2.1853,0.00,-0.12,0.47
4303,-0.9132,1.8321,2.1850,0.00,-0.12,0.47
4312,-0.9140,1.8324,2.1838,0.00,-0.12,0.47
4321,-0.9119,1.8316,2.1851,0.00,-0.12,0.47
4330,-0.9134,1.8318,2.1826,0.00,-0.12,0.47
4339,-0.9121,1.8337,2.1867,0.00,-0.12,0.47
4348,-0.9129,1.8328,2.1847,0.00,-0.12,0.47
4357,-0.9144,1.8341,2.1859,0.00,-0.12,0.47
4366,-0.9129,1.8332,2.1858,0.00,-0.12,0.47
4375,-0.9113,1.8321,2.1860,0.00,-0.12,0.47
4384,-0.9150,1.8344,2.1856,0.00,-0.12,0.47
4393,-0.9121,1.8339,2.1851,0.00,-0.12,0.47
4402,-0.9125,1.8328,2.1864,0.00,-0.12,0.47
4411,-0.9115,1.8317,2.1860,0.00,-0.12,0.47
4420,-0.9148,1.8326,2.1866,0.00,-0.12,0.47
4429,-0.9157,1.8327,2.1857,0.00,-0.12,0.47
4438,-0.9119,1.8317,2.1873,0.00,-0.12,0.47
4447,-0.9162,1.8334,2.1855,0.00,-0.12,0.47
4456,-0.9135,1.8309,2.1864,0.00,-0.12,0.47
4465,-0.9139,1.8314,2.1845,0.00,-0.12,0.47
4474,-0.9136,1.8329,2.1857,0.00,-0.12,0.47
4483,-0.9134,1.8318,2.1874,0.00,-0.12,0.47
4492,-0.9137,1.8332,2.1851,0.00,-0.12,0.47
4501,-0.9144,1.8328,2.1866,0.00,-0.12,0.47
4510,-0.9129,1.8317,2.1826,0.00,-0.12,0.47
4519,-0.9143,1.8342,2.1849,0.00,-0.12,0.47
4528,-0.9133,1.8338,2.1853,0.00,-0.12,0.47
4537,-0.9135,1.8332,2.1859,0.00,-0.12,0.47
4546,-0.9153,1.8336,2.1872,0.00,-0.12,0.47
4555,-0.9136,1.8330,2.1876,0.00,-0.12,0.47
4564,-0.9148,1.8342,2.1853,0.00,-0.12,0.47
4573,-0.9141,1.8331,2.1856,0.00,-0.12,0.47
4582,-0.9138,1.8327,2.1844,0.00,-0.12,0.47
4591,-0.9134,1.8327,2.1839,0.00,-0.12,0.47
4600,-0.9140,1.8328,2.1861,0.00,-0.12,0.47
4609,-0.9144,1.8331,2.1843,0.00,-0.12,0.47
4618,-0.9159,1.8318,2.1856,0.00,-0.12,0.47
4627,-0.9128,1.8334,2.1871,0.00,-0.12,0.47
4636,-0.9157,1.8326,2.1842,0.00,-0.12,0.47
4645,-0.9140,1.8329,2.1844,0.00,-0.12,0.47
4654,-0.9145,1.8321,2.1853,0.00,-0.12,0.47
4663,-0.9147,1.8331,2.1844,0.00,-0.12,0.47
4672,-0.9128,1.8339,2.1853,0.00,-0.12,0.47
4681,-0.9133,1.8319,2.1864,0.00,-0.12,0.47
4690,-0.9140,1.8339,2.1841,0.00,-0.12,0.47
4699,-0.9141,1.8323,2.1866,0.00,-0.12,0.47
4708,-0.9126,1.8328,2.1874,0.00,-0.12,0.47
4717,-0.9166,1.8323,2.1859,0.00,-0.12,0.47
4726,-0.9155,1.8336,2.1856,0.00,-0.12,0.47
4735,-0.9153,1.8322,2.1880,0.00,-0.12,0.47
4744,-0.9141,1.8319,2.1842,0.00,-0.12,0.47
4753,-0.9141,1.8324,2.1870,0.00,-0.12,0.47
4762,-0.9142,1.8325,2.1874,0.00,-0.12,0.47
4771,-0.9153,1.8329,2.1862,0.00,-0.12,0.47
4780,-0.9138,1.8324,2.1856,0.00,-0.12,0.47
4789,-0.9129,1.8329,2.1844,0.00,-0.12,0.47
4798,-0.9152,1.8317,2.1842,0.00,-0.12,0.47
4807,-0.9139,1.8324,2.1858,0.00,-0.12,0.47
4816,-0.9141,1.8313,2.1867,0.00,-0.12,0.47
4825,-0.9128,1.8315,2.1843,0.00,-0.12,0.47
4834,-0.9140,1.8339,2.1850,0.00,-0.12,0.47
4843,-0.9141,1.8317,2.1852,0.00,-0.12,0.47
4852,-0.9116,1.8337,2.1852,0.00,-0.12,0.47
4861,-0.9144,1.8327,2.1853,0.00,-0.12,0.47
4870,-0.9147,1.8334,2.1851,0.00,-0.12,0.47
4879,-0.9117,1.8327,2.1855,0.00,-0.12,0.47
4888,-0.9136,1.8326,2.1849,0.00,-0.12,0.47
4897,-0.9167,1.8350,2.1860,0.00,-0.12,0.47
4906,-0.9126,1.8329,2.1849,0.00,-0.12,0.47
4915,-0.9138,1.8326,2.1856,0.00,-0.12,0.47
4924,-0.9140,1.8329,2.1862,0.00,-0.12,0.47
4933,-0.9135,1.8316,2.1855,0.00,-0.12,0.47
4942,-0.9118,1.8332,2.1853,0.00,-0.12,0.47
4951,-0.9134,1.8333,2.1864,0.00,-0.12,0.47
4960,-0.9134,1.8331,2.1853,0.00,-0.12,0.47
4969,-0.9150,1.8348,2.1857,0.00,-0.12,0.47
4978,-0.9133,1.8325,2.1852,0.00,-0.12,0.47
4987,-0.9143,1.8332,2.1882,0.00,-0.12,0.47
4996,-0.9141,1.8347,2.1841,0.00,-0.12,0.47
5005,-0.9157,1.8332,2.1846,0.00,-0.12,0.47
5014,-0.9154,1.8323,2.1852,0.00,-0.12,0.47
5023,-0.9142,1.8324,2.1847,0.00,-0.12,0.47
5032,-0.9138,1.8325,2.1839,0.00,-0.12,0.47
5041,-0.9139,1.8340,2.1844,0.00,-0.12,0.47
5050,-0.9146,1.8331,2.1866,0.00,-0.12,0.47
5059,-0.9132,1.8325,2.1874,0.00,-0.12,0.47
5068,-0.9148,1.8329,2.1854,0.00,-0.12,0.47
5077,-0.9147,1.8328,2.1867,0.00,-0.12,0.47
5086,-0.9136,1.8324,2.1843,0.00,-0.12,0.47
5095,-0.9111,1.8330,2.1843,0.00,-0.12,0.47
5104,-0.9129,1.8319,2.1861,0.00,-0.12,0.47
5113,-0.9132,1.8330,2.1865,0.00,-0.12,0.47
5122,-0.9126,1.8331,2.1861,0.00,-0.12,0.47
5131,-0.9140,1.8335,2.1848,0.00,-0.12,0.47
5140,-0.9138,1.8310,2.1875,0.00,-0.12,0.47
5149,-0.9149,1.8329,2.1877,0.00,-0.12,0.47
5158,-0.9168,1.8331,2.1861,0.00,-0.12,0.47
5167,-0.9123,1.8333,2.1834,0.00,-0.12,0.47
5176,-0.9161,1.8320,2.1846,0.00,-0.12,0.47
5185,-0.9139,1.8316,2.1870,0.00,-0.12,0.47
5194,-0.9116,1.8323,2.1851,0.00,-0.12,0.47
5203,-0.9131,1.8327,2.1871,0.00,-0.12,0.47
5212,-0.9116,1.8316,2.1874,0.00,-0.12,0.47
5221,-0.9134,1.8330,2.1839,0.00,-0.12,0.47
5230,-0.9138,1.8332,2.1866,0.00,-0.12,0.47
5239,-0.9138,1.8325,2.1866,0.00,-0.12,0.47
5248,-0.9132,1.8326,2.1868,0.00,-0.12,0.47
5257,-0.9135,1.8314,2.1856,0.00,-0.12,0.47
5266,-0.9159,1.8306,2.1849,0.00,-0.12,0.47
5275,-0.9144,1.8324,2.1833,0.00,-0.12,0.47
5284,-0.9150,1.8339,2.1842,0.00,-0.12,0.47
5293,-0.9127,1.8316,2.1856,0.00,-0.12,0.47
5302,-0.9146,1.8319,2.1865,0.00,-0.12,0.47
5311,-0.9152,1.8343,2.1883,0.00,-0.12,0.47
5320,-0.9131,1.8330,2.1843,0.00,-0.12,0.47
5329,-0.9129,1.8318,2.1860,0.00,-0.12,0.47
5338,-0.9155,1.8333,2.1857,0.00,-0.12,0.47
5347,-0.9143,1.8317,2.1856,0.00,-0.12,0.47
5356,-0.9134,1.8343,2.1846,0.00,-0.12,0.47
5365,-0.9139,1.8322,2.1841,0.00,-0.12,0.47
5374,-0.9135,1.8326,2.1857,0.00,-0.12,0.47
5383,-0.9126,1.8338,2.1848,0.00,-0.12,0.47
5392,-0.9140,1.8329,2.1855,0.00,-0.12,0.47
5401,-0.9130,1.8317,2.1868,0.00,-0.12,0.47
5410,-0.9141,1.8316,2.1840,0.00,-0.12,0.47
5419,-0.9137,1.8346,2.1853,0.00,-0.12,0.47
5428,-0.9161,1.8312,2.1863,0.00,-0.12,0.47
5437,-0.9122,1.8331,2.1866,0.00,-0.12,0.47
5446,-0.9137,1.8335,2.1856,0.00,-0.12,0.47
5455,-0.9142,1.8321,2.1859,0.00,-0.12,0.47
5464,-0.9142,1.8325,2.1853,0.00,-0.12,0.47
5473,-0.9119,1.8338,2.1843,0.00,-0.12,0.47
5482,-0.9138,1.8333,2.1863,0.00,-0.12,0.47
5491,-0.9130,1.8331,2.1859,0.00,-0.12,0.47
5500,-0.9123,1.8323,2.1865,0.00,-0.12,0.47
5509,-0.9143,1.8331,2.1867,0.00,-0.12,0.47
5518,-0.9140,1.8347,2.1867,0.00,-0.12,0.47
5527,-0.9137,1.8324,2.1863,0.00,-0.12,0.47
5536,-0.9135,1.8330,2.1872,0.00,-0.12,0.47
5545,-0.9153,1.8312,2.1859,0.00,-0.12,0.47
5554,-0.9135,1.8327,2.1855,0.00,-0.12,0.47
5563,-0.9130,1.8324,2.1863,0.00,-0.12,0.47
5572,-0.9167,1.8318,2.1857,0.00,-0.12,0.47
5581,-0.9122,1.8317,2.1861,0.00,-0.12,0.47
5590,-0.9145,1.8329,2.1868,0.00,-0.12,0.47
5599,-0.9146,1.8314,2.1876,0.00,-0.12,0.47
5608,-0.9141,1.8326,2.1846,0.00,-0.12,0.47
5617,-0.9134,1.8316,2.1845,0.00,-0.12,0.47
5626,-0.9124,1.8325,2.1857,0.00,-0.12,0.47
5635,-0.9135,1.8336,2.1849,0.00,-0.12,0.47
5644,-0.9130,1.8331,2.1838,0.00,-0.12,0.47
5653,-0.9132,1.8322,2.1856,0.00,-0.12,0.47
5662,-0.9148,1.8316,2.1870,0.00,-0.12,0.47
5671,-0.9130,1.8349,2.1862,0.00,-0.12,0.47
5680,-0.9140,1.8341,2.1851,0.00,-0.12,0.47
5689,-0.9137,1.8323,2.1869,0.00,-0.12,0.47
5698,-0.9161,1.8314,2.1861,0.00,-0.12,0.47
5707,-0.9147,1.8325,2.1848,0.00,-0.12,0.47
5716,-0.9146,1.8318,2.1846,0.00,-0.12,0.47
5725,-0.9154,1.8332,2.1865,0.00,-0.12,0.47
5734,-0.9142,1.8308,2.1855,0.00,-0.12,0.47
5743,-0.9122,1.8327,2.1843,0.00,-0.12,0.47
5752,-0.9120,1.8320,2.1871,0.00,-0.12,0.47
5761,-0.9130,1.8335,2.1876,0.00,-0.12,0.47
5770,-0.9141,1.8327,2.1875,0.00,-0.12,0.47
5779,-0.9128,1.8314,2.1867,0.00,-0.12,0.47
5788,-0.9143,1.8333,2.1841,0.00,-0.12,0.47
5797,-0.9136,1.8337,2.1844,0.00,-0.12,0.47
5806,-0.9147,1.8310,2.1851,0.00,-0.12,0.47
5815,-0.9148,1.8324,2.1855,0.00,-0.12,0.47
5824,-0.9142,1.8337,2.1859,0.00,-0.12,0.47
5833,-0.9147,1.8322,2.1871,0.00,-0.12,0.47
5842,-0.9143,1.8324,2.1857,0.00,-0.12,0.47
5851,-0.9153,1.8319,2.1845,0.00,-0.12,0.47
5860,-0.9134,1.8317,2.1835,0.00,-0.12,0.47
5869,-0.9138,1.8328,2.1856,0.00,-0.12,0.47
5878,-0.9121,1.8316,2.1865,0.00,-0.12,0.47
5887,-0.9157,1.8312,2.1855,0.00,-0.12,0.47
5896,-0.9155,1.8322,2.1850,0.00,-0.12,0.47
5905,-0.9113,1.8349,2.1855,0.00,-0.12,0.47
5914,-0.9139,1.8342,2.1851,0.00,-0.12,0.47
5923,-0.9149,1.8333,2.1855,0.00,-0.12,0.47
5932,-0.9133,1.8331,2.1864,0.00,-0.12,0.47
5941,-0.9144,1.8339,2.1844,0.00,-0.12,0.47
5950,-0.9125,1.8324,2.1865,0.00,-0.12,0.47
5959,-0.9135,1.8335,2.1861,0.00,-0.12,0.47
5968,-0.9132,1.8330,2.1861,0.00,-0.12,0.47
5977,-0.9128,1.8333,2.1863,0.00,-0.12,0.47
5986,-0.9125,1.8333,2.1849,0.00,-0.12,0.47
5995,-0.9154,1.8332,2.1853,0.00,-0.12,0.47
6004,-0.9117,1.8347,2.1854,0.00,-0.12,0.47
6013,-0.9126,1.8327,2.1853,0.00,-0.12,0.47
6022,-0.9141,1.8329,2.1859,0.00,-0.12,0.47
6031,-0.9141,1.8326,2.1876,0.00,-0.12,0.47
6040,-0.9150,1.8319,2.1866,0.00,-0.12,0.47
6049,-0.9156,1.8326,2.1850,0.00,-0.12,0.47
6058,-0.9135,1.8340,2.1843,0.00,-0.12,0.47
6067,-0.9152,1.8321,2.1871,0.00,-0.12,0.47
6076,-0.9107,1.8343,2.1857,0.00,-0.12,0.47
6085,-0.9134,1.8313,2.1837,0.00,-0.12,0.47
6094,-0.9144,1.8343,2.1843,0.00,-0.12,0.47
6103,-0.9124,1.8320,2.1868,0.00,-0.12,0.47
6112,-0.9139,1.8317,2.1854,0.00,-0.12,0.47
6121,-0.9116,1.8328,2.1851,0.00,-0.12,0.47
6130,-0.9124,1.8316,2.1839,0.00,-0.12,0.47
6139,-0.9148,1.8314,2.1869,0.00,-0.12,0.47
6148,-0.9128,1.8333,2.1854,0.00,-0.12,0.47
6157,-0.9141,1.8328,2.1865,0.00,-0.12,0.47
6166,-0.9152,1.8309,2.1856,0.00,-0.12,0.47
6175,-0.9140,1.8323,2.1857,0.00,-0.12,0.47
6184,-0.9130,1.8343,2.1871,0.00,-0.12,0.47
6193,-0.9136,1.8323,2.1863,0.00,-0.12,0.47
6202,-0.9139,1.8340,2.1860,0.00,-0.12,0.47
6211,-0.9129,1.8326,2.1867,0.00,-0.12,0.47
6220,-0.9143,1.8312,2.1848,0.00,-0.12,0.47
6229,-0.9167,1.8328,2.1852,0.00,-0.12,0.47
6238,-0.9143,1.8337,2.1861,0.00,-0.12,0.47
6247,-0.9136,1.8320,2.1880,0.00,-0.12,0.47
6256,-0.9115,1.8329,2.1851,0.00,-0.12,0.47
6265,-0.9126,1.8322,2.1858,0.00,-0.12,0.47
6274,-0.9138,1.8336,2.1856,0.00,-0.12,0.47
6283,-0.9149,1.8327,2.1854,0.00,-0.12,0.47
6292,-0.9159,1.8323,2.1849,0.00,-0.12,0.47
6301,-0.9132,1.8341,2.1874,0.00,-0.12,0.47
6310,-0.9137,1.8323,2.1845,0.00,-0.12,0.47
6319,-0.9158,1.8334,2.1857,0.00,-0.12,0.47
6328,-0.9153,1.8318,2.1858,0.00,-0.12,0.47
6337,-0.9132,1.8329,2.1856,0.00,-0.12,0.47
6346,-0.9128,1.8334,2.1864,0.00,-0.12,0.47
6355,-0.9152,1.8332,2.1863,0.00,-0.12,0.47
6364,-0.9156,1.8303,2.1857,0.00,-0.12,0.47
6373,-0.9132,1.8324,2.1850,0.00,-0.12,0.47
6382,-0.9153,1.8318,2.1877,0.00,-0.12,0.47
6391,-0.9116,1.8322,2.1855,0.00,-0.12,0.47
6400,-0.9135,1.8343,2.1864,0.00,-0.12,0.47
6409,-0.9123,1.8329,2.1843,0.00,-0.12,0.47
6418,-0.9140,1.8324,2.1868,0.00,-0.12,0.47
6427,-0.9120,1.8316,2.1849,0.00,-0.12,0.47
6436,-0.9153,1.8312,2.1861,0.00,-0.12,0.47
6445,-0.9150,1.8339,2.1863,0.00,-0.12,0.47
6454,-0.9178,1.8341,2.1843,0.00,-0.12,0.47
6463,-0.9150,1.8318,2.1865,0.00,-0.12,0.47
6472,-0.9137,1.8320,2.1850,0.00,-0.12,0.47
6481,-0.9146,1.8336,2.1859,0.00,-0.12,0.47
6490,-0.9123,1.8309,2.1865,0.00,-0.12,0.47
6499,-0.9149,1.8350,2.1867,0.00,-0.12,0.47
6508,-0.9130,1.8337,2.1850,0.00,-0.12,0.47
6517,-0.9134,1.8327,2.1863,0.00,-0.12,0.47
6526,-0.9142,1.8326,2.1833,0.00,-0.12,0.47
6535,-0.9128,1.8330,2.1860,0.00,-0.12,0.47
6544,-0.9143,1.8317,2.1856,0.00,-0.12,0.47
6553,-0.9142,1.8312,2.1860,0.00,-0.12,0.47
6562,-0.9150,1.8340,2.1838,0.00,-0.12,0.47
6571,-0.9142,1.8322,2.1866,0.00,-0.12,0.47
6580,-0.9156,1.8313,2.1844,0.00,-0.12,0.47
6589,-0.9131,1.8334,2.1858,0.00,-0.12,0.47
6598,-0.9128,1.8307,2.1845,0.00,-0.12,0.47
6607,-0.9145,1.8328,2.1838,0.00,-0.12,0.47
6616,-0.9158,1.8342,2.1878,0.00,-0.12,0.47
6625,-0.9130,1.8314,2.1854,0.00,-0.12,0.47
6634,-0.9143,1.8332,2.1846,0.00,-0.12,0.47
6643,-0.9131,1.8316,2.1863,0.00,-0.12,0.47
6652,-0.9133,1.8327,2.1849,0.00,-0.12,0.47
6661,-0.9148,1.8331,2.1876,0.00,-0.12,0.47
6670,-0.9140,1.8299,2.1842,0.00,-0.12,0.47
6679,-0.9138,1.8329,2.1857,0.00,-0.12,0.47
6688,-0.9148,1.8309,2.1864,0.00,-0.12,0.47
6697,-0.9137,1.8328,2.1855,0.00,-0.12,0.47
6706,-0.9155,1.8322,2.1846,0.00,-0.12,0.47
6715,-0.9141,1.8314,2.1865,0.00,-0.12,0.47
6724,-0.9121,1.8319,2.1863,0.00,-0.12,0.47
6733,-0.9161,1.8338,2.1831,0.00,-0.12,0.47
6742,-0.9141,1.8298,2.1861,0.00,-0.12,0.47
6751,-0.9115,1.8331,2.1858,0.00,-0.12,0.47
6760,-0.9150,1.8325,2.1844,0.00,-0.12,0.47
6769,-0.9131,1.8309,2.1874,0.00,-0.12,0.47
6778,-0.9130,1.8335,2.1845,0.00,-0.12,0.47
6787,-0.9123,1.8312,2.1846,0.00,-0.12,0.47
6796,-0.9135,1.8314,2.1854,0.00,-0.12,0.47
6805,-0.9153,1.8317,2.1846,0.00,-0.12,0.47
6814,-0.9150,1.8318,2.1845,0.00,-0.12,0.47
6823,-0.9157,1.8329,2.1848,0.00,-0.12,0.47
6832,-0.9142,1.8318,2.1860,0.00,-0.12,0.47
6841,-0.9147,1.8324,2.1859,0.00,-0.12,0.47
6850,-0.9131,1.8322,2.1858,0.00,-0.12,0.47
6859,-0.9149,1.8314,2.1865,0.00,-0.12,0.47
6868,-0.9118,1.8318,2.1866,0.00,-0.12,0.47
6877,-0.9126,1.8320,2.1851,0.00,-0.12,0.47
6886,-0.9130,1.8328,2.1856,0.00,-0.12,0.47
6895,-0.9143,1.8325,2.1863,0.00,-0.12,0.47
6904,-0.9143,1.8325,2.1855,0.00,-0.12,0.47
6913,-0.9119,1.8345,2.1872,0.00,-0.12,0.47
6922,-0.9130,1.8336,2.1864,0.00,-0.12,0.47
6931,-0.9154,1.8334,2.1850,0.00,-0.12,0.47
6940,-0.9137,1.8322,2.1847,0.00,-0.12,0.47
6949,-0.9134,1.8330,2.1839,0.00,-0.12,0.47
6958,-0.9146,1.8321,2.1831,0.00,-0.12,0.47
6967,-0.9141,1.8329,2.1854,0.00,-0.12,0.47
6976,-0.9137,1.8328,2.1849,0.00,-0.12,0.47
6985,-0.9126,1.8341,2.1872,0.00,-0.12,0.47
6994,-0.9142,1.8322,2.1838,0.00,-0.12,0.47
7003,-0.9134,1.8342,2.1869,0.00,-0.12,0.47
7012,-0.9133,1.8343,2.1854,0.00,-0.12,0.47
7021,-0.9161,1.8336,2.1872,0.00,-0.12,0.47
7030,-0.9157,1.8335,2.1873,0.00,-0.12,0.47
7039,-0.9156,1.8334,2.1862,0.00,-0.12,0.47
7048,-0.9136,1.8312,2.1857,0.00,-0.12,0.47
7057,-0.9152,1.8336,2.1859,0.00,-0.12,0.47
7066,-0.9146,1.8321,2.1850,0.00,-0.12,0.47
7075,-0.9141,1.8306,2.1862,0.00,-0.12,0.47
7084,-0.9150,1.8332,2.1863,0.00,-0.12,0.47
7093,-0.9149,1.8328,2.1855,0.00,-0.12,0.47
7102,-0.9139,1.8328,2.1862,0.00,-0.12,0.47
7111,-0.9159,1.8327,2.1859,0.00,-0.12,0.47
7120,-0.9143,1.8333,2.1851,0.00,-0.12,0.47
7129,-0.9127,1.8323,2.1877,0.00,-0.12,0.47
7138,-0.9133,1.8348,2.1839,0.00,-0.12,0.47
7147,-0.9130,1.8338,2.1862,0.00,-0.12,0.47
7156,-0.9125,1.8332,2.1855,0.00,-0.12,0.47
7165,-0.9132,1.8325,2.1855,0.00,-0.12,0.47
7174,-0.9134,1.8323,2.1847,0.00,-0.12,0.47
7183,-0.9137,1.8324,2.1873,0.00,-0.12,0.47
7192,-0.9135,1.8330,2.1863,0.00,-0.12,0.47
7201,-0.9136,1.8319,2.1857,0.00,-0.12,0.47
7210,-0.9131,1.8319,2.1845,0.00,-0.12,0.47
7219,-0.9143,1.8333,2.1837,0.00,-0.12,0.47
7228,-0.9123,1.8321,2.1863,0.00,-0.12,0.47
7237,-0.9145,1.8328,2.1860,0.00,-0.12,0.47
7246,-0.9125,1.8324,2.1862,0.00,-0.12,0.47
7255,-0.9132,1.8332,2.1845,0.00,-0.12,0.47
7264,-0.9156,1.8315,2.1855,0.00,-0.12,0.47
7273,-0.9147,1.8319,2.1871,0.00,-0.12,0.47
7282,-0.9127,1.8330,2.1850,0.00,-0.12,0.47
7291,-0.9138,1.8316,2.1867,0.00,-0.12,0.47
7300,-0.9146,1.8319,2.1850,0.00,-0.12,0.47
7309,-0.9141,1.8346,2.1866,0.00,-0.12,0.47
7318,-0.9153,1.8330,2.1845,0.00,-0.12,0.47
7327,-0.9125,1.8324,2.1849,0.00,-0.12,0.47
7336,-0.9139,1.8321,2.1842,0.00,-0.12,0.47
7345,-0.9134,1.8311,2.1845,0.00,-0.12,0.47
7354,-0.9129,1.8315,2.1853,0.00,-0.12,0.47
7363,-0.9142,1.8333,2.1865,0.00,-0.12,0.47
7372,-0.9144,1.8335,2.1857,0.00,-0.12,0.47
7381,-0.9153,1.8318,2.1845,0.00,-0.12,0.47
7390,-0.9158,1.8327,2.1862,0.00,-0.12,0.47
7399,-0.9147,1.8328,2.1854,0.00,-0.12,0.47
7408,-0.9140,1.8337,2.1861,0.00,-0.12,0.47
7417,-0.9152,1.8317,2.1861,0.00,-0.12,0.47
7426,-0.9134,1.8311,2.1875,0.00,-0.12,0.47
7435,-0.9134,1.8332,2.1845,0.00,-0.12,0.47
7444,-0.9129,1.8320,2.1875,0.00,-0.12,0.47
7453,-0.9122,1.8337,2.1837,0.00,-0.12,0.47
7462,-0.9127,1.8343,2.1839,0.00,-0.12,0.47
7471,-0.9125,1.8336,2.1850,0.00,-0.12,0.47
7480,-0.9148,1.8313,2.1858,0.00,-0.12,0.47
7489,-0.9142,1.8330,2.1860,0.00,-0.12,0.47
7498,-0.9135,1.8331,2.1852,0.00,-0.12,0.47
7507,-0.9137,1.8320,2.1843,0.00,-0.12,0.47
7516,-0.9160,1.8318,2.1838,0.00,-0.12,0.47
7525,-0.9130,1.8344,2.1854,0.00,-0.12,0.47
7534,-0.9162,1.8316,2.1854,0.00,-0.12,0.47
7543,-0.9145,1.8326,2.1851,0.00,-0.12,0.47
7552,-0.9135,1.8349,2.1865,0.00,-0.12,0.47
7561,-0.9118,1.8312,2.1846,0.00,-0.12,0.47
7570,-0.9150,1.8325,2.1845,0.00,-0.12,0.47
7579,-0.9140,1.8340,2.1860,0.00,-0.12,0.47
7588,-0.9151,1.8337,2.1856,0.00,-0.12,0.47
7597,-0.9143,1.8341,2.1833,0.00,-0.12,0.47
7606,-0.9126,1.8317,2.1877,0.00,-0.12,0.47
7615,-0.9135,1.8342,2.1850,0.00,-0.12,0.47
7624,-0.9158,1.8329,2.1864,0.00,-0.12,0.47
7633,-0.9157,1.8344,2.1853,0.00,-0.12,0.47
7642,-0.9149,1.8321,2.1865,0.00,-0.12,0.47
7651,-0.9132,1.8336,2.1843,0.00,-0.12,0.47
7660,-0.9144,1.8334,2.1870,0.00,-0.12,0.47
7669,-0.9133,1.8330,2.1860,0.00,-0.12,0.47
7678,-0.9141,1.8335,2.1843,0.00,-0.12,0.47
7687,-0.9143,1.8314,2.1860,0.00,-0.12,0.47
7696,-0.9134,1.8329,2.1854,0.00,-0.12,0.47
7705,-0.9162,1.8334,2.1857,0.00,-0.12,0.47
7714,-0.9128,1.8339,2.1857,0.00,-0.12,0.47
7723,-0.9134,1.8322,2.1864,0.00,-0.12,0.47
7732,-0.9137,1.8324,2.1869,0.00,-0.12,0.47
7741,-0.9142,1.8351,2.1843,0.00,-0.12,0.47
7750,-0.9124,1.8317,2.1860,0.00,-0.12,0.47
7759,-0.9145,1.8327,2.1838,0.00,-0.12,0.47
7768,-0.9134,1.8337,2.1854,0.00,-0.12,0.47
7777,-0.9123,1.8320,2.1863,0.00,-0.12,0.47
7786,-0.9149,1.8316,2.1859,0.00,-0.12,0.47
7795,-0.9131,1.8317,2.1849,0.00,-0.12,0.47
7804,-0.9107,1.8342,2.1854,0.00,-0.12,0.47
7813,-0.9134,1.8315,2.1855,0.00,-0.12,0.47
7822,-0.9118,1.8316,2.1841,0.00,-0.12,0.47
7831,-0.9136,1.8329,2.1863,0.00,-0.12,0.47
7840,-0.9152,1.8329,2.1866,0.00,-0.12,0.47
7849,-0.9147,1.8331,2.1848,0.00,-0.12,0.47
7858,-0.9148,1.8307,2.1855,0.00,-0.12,0.47
7867,-0.9133,1.8332,2.1861,0.00,-0.12,0.47
7876,-0.9126,1.8324,2.1867,0.00,-0.12,0.47
7885,-0.9140,1.8322,2.1863,0.00,-0.12,0.47
7894,-0.9143,1.8328,2.1838,0.00,-0.12,0.47
7903,-0.9133,1.8321,2.1853,0.00,-0.12,0.47
7912,-0.9152,1.8334,2.1872,0.00,-0.12,0.47
7921,-0.9141,1.8325,2.1867,0.00,-0.12,0.47
7930,-0.9143,1.8331,2.1839,0.00,-0.12,0.47
7939,-0.9145,1.8337,2.1848,0.00,-0.12,0.47
7948,-0.9144,1.8330,2.1839,0.00,-0.12,0.47
7957,-0.9140,1.8318,2.1863,0.00,-0.12,0.47
7966,-0.9133,1.8335,2.1878,0.00,-0.12,0.47
7975,-0.9133,1.8330,2.1848,0.00,-0.12,0.47
7984,-0.9148,1.8309,2.1845,0.00,-0.12,0.47
7993,-0.9128,1.8325,2.1876,0.00,-0.12,0.47
8002,-0.9127,1.8327,2.1859,0.00,-0.12,0.47
8011,-0.9129,1.8333,2.1874,0.00,-0.12,0.47
8020,-0.9136,1.8297,2.1844,0.00,-0.12,0.47
8029,-0.9135,1.8332,2.1863,0.00,-0.12,0.47
8038,-0.9156,1.8333,2.1869,0.00,-0.12,0.47
8047,-0.9153,1.8330,2.1853,0.00,-0.12,0.47
8056,-0.9141,1.8322,2.1851,0.00,-0.12,0.47
8065,-0.9122,1.8325,2.1852,0.00,-0.12,0.47
8074,-0.9154,1.8316,2.1846,0.00,-0.12,0.47
8083,-0.9138,1.8315,2.1863,0.00,-0.12,0.47
8092,-0.9168,1.8313,2.1836,0.00,-0.12,0.47
8101,-0.9129,1.8337,2.1852,0.00,-0.12,0.47
8110,-0.9132,1.8333,2.1847,0.00,-0.12,0.47
8119,-0.9137,1.8343,2.1849,0.00,-0.12,0.47
8128,-0.9149,1.8334,2.1853,0.00,-0.12,0.47
8137,-0.9139,1.8319,2.1847,0.00,-0.12,0.47
8146,-0.9127,1.8327,2.1872,0.00,-0.12,0.47
8155,-0.9126,1.8326,2.1842,0.00,-0.12,0.47
8164,-0.9149,1.8327,2.1853,0.00,-0.12,0.47
8173,-0.9141,1.8319,2.1861,0.00,-0.12,0.47
8182,-0.9137,1.8345,2.1854,0.00,-0.12,0.47
8191,-0.9131,1.8313,2.1866,0.00,-0.12,0.47
8200,-0.9147,1.8319,2.1844,0.00,-0.12,0.47
8209,-0.9143,1.8326,2.1875,0.00,-0.12,0.47
8218,-0.9128,1.8329,2.1853,0.00,-0.12,0.47
8227,-0.9132,1.8326,2.1850,0.00,-0.12,0.47
8236,-0.9132,1.8315,2.1861,0.00,-0.12,0.47
8245,-0.9132,1.8323,2.1844,0.00,-0.12,0.47
8254,-0.9139,1.8337,2.1833,0.00,-0.12,0.47
8263,-0.9144,1.8330,2.1859,0.00,-0.12,0.47
8272,-0.9160,1.8345,2.1843,0.00,-0.12,0.47
8281,-0.9123,1.8317,2.1868,0.00,-0.12,0.47
8290,-0.9140,1.8318,2.1849,0.00,-0.12,0.47
8299,-0.9136,1.8317,2.1854,0.00,-0.12,0.47
8308,-0.9156,1.8322,2.1855,0.00,-0.12,0.47
8317,-0.9137,1.8322,2.1864,0.00,-0.12,0.47
8326,-0.9121,1.8340,2.1863,0.00,-0.12,0.47
8335,-0.9157,1.8317,2.1855,0.00,-0.12,0.47
8344,-0.9137,1.8336,2.1862,0.00,-0.12,0.47
8353,-0.9149,1.8320,2.1869,0.00,-0.12,0.47
8362,-0.9123,1.8322,2.1864,0.00,-0.12,0.47
8371,-0.9151,1.8310,2.1853,0.00,-0.12,0.47
8380,-0.9126,1.8337,2.1850,0.00,-0.12,0.47
8389,-0.9158,1.8319,2.1854,0.00,-0.12,0.47
8398,-0.9147,1.8336,2.1860,0.00,-0.12,0.47
8407,-0.9141,1.8331,2.1840,0.00,-0.12,0.47
8416,-0.9160,1.8320,2.1864,0.00,-0.12,0.47
8425,-0.9149,1.8316,2.1860,0.00,-0.12,0.47
8434,-0.9144,1.8343,2.1862,0.00,-0.12,0.47
8443,-0.9130,1.8330,2.1876,0.00,-0.12,0.47
8452,-0.9135,1.8323,2.1872,0.00,-0.12,0.47
8461,-0.9123,1.8331,2.1838,0.00,-0.12,0.47
8470,-0.9128,1.8330,2.1858,0.00,-0.12,0.47
8479,-0.9151,1.8322,2.1854,0.00,-0.12,0.47
8488,-0.9144,1.8350,2.1854,0.00,-0.12,0.47
8497,-0.9144,1.8332,2.1840,0.00,-0.12,0.47
8506,-0.9135,1.8330,2.1852,0.00,-0.12,0.47
8515,-0.9143,1.8323,2.1862,0.00,-0.12,0.47
8524,-0.9146,1.8322,2.1869,0.00,-0.12,0.47
8533,-0.9141,1.8319,2.1855,0.00,-0.12,0.47
8542,-0.9162,1.8320,2.1872,0.00,-0.12,0.47
8551,-0.9144,1.8336,2.1854,0.00,-0.12,0.47
8560,-0.9152,1.8329,2.1855,0.00,-0.12,0.47
8569,-0.9139,1.8318,2.1864,0.00,-0.12,0.47
8578,-0.9140,1.8316,2.1884,0.00,-0.12,0.47
8587,-0.9157,1.8315,2.1867,0.00,-0.12,0.47
8596,-0.9161,1.8339,2.1862,0.00,-0.12,0.47
8605,-0.9137,1.8335,2.1850,0.00,-0.12,0.47
8614,-0.9139,1.8338,2.1868,0.00,-0.12,0.47
8623,-0.9134,1.8320,2.1864,0.00,-0.12,0.47
8632,-0.9149,1.8321,2.1852,0.00,-0.12,0.47
8641,-0.9146,1.8316,2.1866,0.00,-0.12,0.47
8650,-0.9141,1.8332,2.1858,0.00,-0.12,0.47
8659,-0.9135,1.8323,2.1861,0.00,-0.12,0.47
8668,-0.9128,1.8330,2.1853,0.00,-0.12,0.47
8677,-0.9136,1.8327,2.1854,0.00,-0.12,0.47
8686,-0.9141,1.8324,2.1847,0.00,-0.12,0.47
8695,-0.9125,1.8326,2.1855,0.00,-0.12,0.47
8704,-0.9144,1.8316,2.1861,0.00,-0.12,0.47
8713,-0.9151,1.8327,2.1850,0.00,-0.12,0.47
8722,-0.9169,1.8325,2.1872,0.00,-0.12,0.47
8731,-0.9150,1.8338,2.1863,0.00,-0.12,0.47
8740,-0.9145,1.8306,2.1843,0.00,-0.12,0.47
8749,-0.9137,1.8333,2.1853,0.00,-0.12,0.47
8758,-0.9142,1.8349,2.1846,0.00,-0.12,0.47
8767,-0.9149,1.8342,2.1831,0.00,-0.12,0.47
8776,-0.9147,1.8324,2.1867,0.00,-0.12,0.47
8785,-0.9147,1.8332,2.1853,0.00,-0.12,0.47
8794,-0.9135,1.8341,2.1860,0.00,-0.12,0.47
8803,-0.9128,1.8327,2.1858,0.00,-0.12,0.47
8812,-0.9136,1.8334,2.1848,0.00,-0.12,0.47
8821,-0.9122,1.8331,2.1835,0.00,-0.12,0.47
8830,-0.9125,1.8339,2.1853,0.00,-0.12,0.47
8839,-0.9127,1.8320,2.1863,0.00,-0.12,0.47
8848,-0.9140,1.8314,2.1849,0.00,-0.12,0.47
8857,-0.9140,1.8334,2.1847,0.00,-0.12,0.47
8866,-0.9132,1.8335,2.1874,0.00,-0.12,0.47
8875,-0.9124,1.8341,2.1857,0.00,-0.12,0.47
8884,-0.9148,1.8327,2.1846,0.00,-0.12,0.47
8893,-0.9126,1.8316,2.1851,0.00,-0.12,0.47
8902,-0.9145,1.8313,2.1867,0.00,-0.12,0.47
8911,-0.9141,1.8330,2.1888,0.00,-0.12,0.47
8920,-0.9131,1.8321,2.1853,0.00,-0.12,0.47
8929,-0.9132,1.8334,2.1860,0.00,-0.12,0.47
8938,-0.9150,1.8324,2.1870,0.00,-0.12,0.47
8947,-0.9143,1.8332,2.1861,0.00,-0.12,0.47
8956,-0.9150,1.8341,2.1859,0.00,-0.12,0.47
8965,-0.9141,1.8328,2.1851,0.00,-0.12,0.47
8974,-0.9143,1.8324,2.1870,0.00,-0.12,0.47
8983,-0.9152,1.8326,2.1868,0.00,-0.12,0.47
8992,-0.9153,1.8340,2.1863,0.00,-0.12,0.47
9001,-0.9126,1.8323,2.1865,0.00,-0.12,0.47
9010,-0.9137,1.8329,2.1846,0.00,-0.12,0.47
9019,-0.9149,1.8319,2.1863,0.00,-0.12,0.47
9028,-0.9145,1.8328,2.1875,0.00,-0.12,0.47
9037,-0.9163,1.8346,2.1868,0.00,-0.12,0.47
9046,-0.9144,1.8337,2.1859,0.00,-0.12,0.47
9055,-0.9153,1.8322,2.1847,0.00,-0.12,0.47
9064,-0.9133,1.8322,2.1858,0.00,-0.12,0.47
9073,-0.9140,1.8331,2.1854,0.00,-0.12,0.47
9082,-0.9141,1.8342,2.1856,0.00,-0.12,0.47
9091,-0.9137,1.8333,2.1860,0.00,-0.12,0.47
9100,-0.9138,1.8343,2.1853,0.00,-0.12,0.47
9109,-0.9132,1.8330,2.1820,0.00,-0.12,0.47
9118,-0.9136,1.8337,2.1860,0.00,-0.12,0.47
9127,-0.9134,1.8303,2.1847,0.00,-0.12,0.47
9136,-0.9133,1.8315,2.1859,0.00,-0.12,0.47
9145,-0.9145,1.8335,2.1859,0.00,-0.12,0.47
9154,-0.9142,1.8348,2.1866,0.00,-0.12,0.47
9163,-0.9132,1.8350,2.1863,0.00,-0.12,0.47
9172,-0.9142,1.8326,2.1861,0.00,-0.12,0.47
9181,-0.9134,1.8344,2.1855,0.00,-0.12,0.47
9190,-0.9146,1.8315,2.1860,0.00,-0.12,0.47
9199,-0.9143,1.8313,2.1856,0.00,-0.12,0.47
9208,-0.9143,1.8337,2.1868,0.00,-0.12,0.47
9217,-0.9138,1.8324,2.1857,0.00,-0.12,0.47
9226,-0.9140,1.8304,2.1872,0.00,-0.12,0.47
9235,-0.9150,1.8334,2.1850,0.00,-0.12,0.47
9244,-0.9160,1.8327,2.1856,0.00,-0.12,0.47
9253,-0.9131,1.8324,2.1852,0.00,-0.12,0.47
9262,-0.9132,1.8331,2.1865,0.00,-0.12,0.47
9271,-0.9125,1.8333,2.1834,0.00,-0.12,0.47
9280,-0.9139,1.8307,2.1856,0.00,-0.12,0.47
9289,-0.9133,1.8319,2.1869,0.00,-0.12,0.47
9298,-0.9126,1.8315,2.1860,0.00,-0.12,0.47
9307,-0.9141,1.8307,2.1846,0.00,-0.12,0.47
9316,-0.9140,1.8318,2.1855,0.00,-0.12,0.47
9325,-0.9145,1.8328,2.1847,0.00,-0.12,0.47
9334,-0.9148,1.8332,2.1865,0.00,-0.12,0.47
9343,-0.9148,1.8334,2.1873,0.00,-0.12,0.47
9352,-0.9166,1.8325,2.1856,0.00,-0.12,0.47
9361,-0.9117,1.8327,2.1863,0.00,-0.12,0.47
9370,-0.9133,1.8315,2.1830,0.00,-0.12,0.47
9379,-0.9129,1.8340,2.1864,0.00,-0.12,0.47
9388,-0.9139,1.8322,2.1845,0.00,-0.12,0.47
9397,-0.9145,1.8334,2.1848,0.00,-0.12,0.47
9406,-0.9136,1.8327,2.1838,0.00,-0.12,0.47
9415,-0.9139,1.8323,2.1853,0.00,-0.12,0.47
9424,-0.9149,1.8331,2.1880,0.00,-0.12,0.47
9433,-0.9138,1.8329,2.1864,0.00,-0.12,0.47
9442,-0.9141,1.8313,2.1835,0.00,-0.12,0.47
9451,-0.9143,1.8328,2.1856,0.00,-0.12,0.47
9460,-0.9129,1.8338,2.1867,0.00,-0.12,0.47
9469,-0.9143,1.8332,2.1854,0.00,-0.12,0.47
9478,-0.9153,1.8328,2.1845,0.00,-0.12,0.47
9487,-0.9101,1.8320,2.1861,0.00,-0.12,0.47
9496,-0.9146,1.8321,2.1845,0.00,-0.12,0.47
9505,-0.9151,1.8306,2.1881,0.00,-0.12,0.47
9514,-0.9128,1.8319,2.1863,0.00,-0.12,0.47
9523,-0.9146,1.8333,2.1867,0.00,-0.12,0.47
9532,-0.9157,1.8341,2.1849,0.00,-0.12,0.47
9541,-0.9159,1.8318,2.1850,0.00,-0.12,0.47
9550,-0.9129,1.8330,2.1860,0.00,-0.12,0.47
9559,-0.9131,1.8307,2.1845,0.00,-0.12,0.47
9568,-0.9138,1.8322,2.1869,0.00,-0.12,0.47
9577,-0.9155,1.8330,2.1855,0.00,-0.12,0.47
9586,-0.9153,1.8331,2.1865,0.00,-0.12,0.47
9595,-0.9138,1.8328,2.1843,0.00,-0.12,0.47
9604,-0.9156,1.8340,2.1836,0.00,-0.12,0.47
9613,-0.9136,1.8325,2.1852,0.00,-0.12,0.47
9622,-0.9130,1.8325,2.1856,0.00,-0.12,0.47
9631,-0.9137,1.8317,2.1856,0.00,-0.12,0.47
9640,-0.9133,1.8314,2.1873,0.00,-0.12,0.47
9649,-0.9132,1.8337,2.1864,0.00,-0.12,0.47
9658,-0.9143,1.8329,2.1843,0.00,-0.12,0.47
9667,-0.9133,1.8331,2.1862,0.00,-0.12,0.47
9676,-0.9136,1.8330,2.1872,0.00,-0.12,0.47
9685,-0.9150,1.8324,2.1853,0.00,-0.12,0.47
9694,-0.9152,1.8333,2.1853,0.00,-0.12,0.47
9703,-0.9146,1.8316,2.1872,0.00,-0.12,0.47
9712,-0.9135,1.8322,2.1856,0.00,-0.12,0.47
9721,-0.9156,1.8335,2.1852,0.00,-0.12,0.47
9730,-0.9158,1.8320,2.1848,0.00,-0.12,0.47
9739,-0.9166,1.8311,2.1858,0.00,-0.12,0.47
9748,-0.9141,1.8314,2.1846,0.00,-0.12,0.47
9757,-0.9134,1.8338,2.1862,0.00,-0.12,0.47
9766,-0.9140,1.8326,2.1858,0.00,-0.12,0.47
9775,-0.9134,1.8322,2.1849,0.00,-0.12,0.47
9784,-0.9140,1.8324,2.1845,0.00,-0.12,0.47
9793,-0.9140,1.8332,2.1853,0.00,-0.12,0.47
9802,-0.9128,1.8320,2.1869,0.00,-0.12,0.47
9811,-0.9130,1.8328,2.1858,0.00,-0.12,0.47
9820,-0.9157,1.8335,2.1845,0.00,-0.12,0.47
9829,-0.9141,1.8334,2.1872,0.00,-0.12,0.47
9838,-0.9142,1.8329,2.1869,0.00,-0.12,0.47
9847,-0.9134,1.8337,2.1875,0.00,-0.12,0.47
9856,-0.9136,1.8321,2.1853,0.00,-0.12,0.47
9865,-0.9132,1.8318,2.1858,0.00,-0.12,0.47
9874,-0.9155,1.8350,2.1857,0.00,-0.12,0.47
9883,-0.9148,1.8318,2.1843,0.00,-0.12,0.47
9892,-0.9151,1.8335,2.1853,0.00,-0.12,0.47
9901,-0.9141,1.8330,2.1862,0.00,-0.12,0.47
9910,-0.9141,1.8319,2.1851,0.00,-0.12,0.47
9919,-0.9144,1.8344,2.1859,0.00,-0.12,0.47
9928,-0.9128,1.8329,2.1861,0.00,-0.12,0.47
9937,-0.9135,1.8326,2.1860,0.00,-0.12,0.47
9946,-0.9139,1.8335,2.1854,0.00,-0.12,0.47
9955,-0.9143,1.8326,2.1871,0.00,-0.12,0.47
9964,-0.9135,1.8332,2.1844,0.00,-0.12,0.47
9973,-0.9135,1.8328,2.1870,0.00,-0.12,0.47
9982,-0.9133,1.8325,2.1854,0.00,-0.12,0.47
9991,-0.9146,1.8325,2.1868,0.00,-0.12,0.47
10000,-0.9137,1.8321,2.1862,0.00,-0.12,0.47
10009,-0.9140,1.8320,2.1861,0.00,-0.12,0.47
10018,-0.9126,1.8339,2.1839,0.00,-0.12,0.47
10027,-0.9134,1.8339,2.1866,0.00,-0.12,0.47
10036,-0.9139,1.8334,2.1846,0.00,-0.12,0.47
10045,-0.9144,1.8325,2.1857,0.00,-0.12,0.47
10054,-0.9140,1.8332,2.1861,0.00,-0.12,0.47
10063,-0.9135,1.8350,2.1850,0.00,-0.12,0.47
10072,-0.9121,1.8317,2.1859,0.00,-0.12,0.47
10081,-0.9144,1.8317,2.1844,0.00,-0.12,0.47
10090,-0.9123,1.8331,2.1854,0.00,-0.12,0.47
10099,-0.9160,1.8333,2.1862,0.00,-0.12,0.47
10108,-0.9139,1.8311,2.1863,0.00,-0.12,0.47
10117,-0.9136,1.8342,2.1853,0.00,-0.12,0.47
10126,-0.9145,1.8325,2.1858,0.00,-0.12,0.47
10135,-0.9139,1.8316,2.1853,0.00,-0.12,0.47
10144,-0.9133,1.8318,2.1848,0.00,-0.12,0.47
10153,-0.9151,1.8322,2.1849,0.00,-0.12,0.47
10162,-0.9133,1.8313,2.1875,0.00,-0.12,0.47
10171,-0.9139,1.8316,2.1862,0.00,-0.12,0.47
10180,-0.9142,1.8325,2.1847,0.00,-0.12,0.47
10189,-0.9132,1.8332,2.1846,0.00,-0.12,0.47
10198,-0.9156,1.8338,2.1858,0.00,-0.12,0.47
10207,-0.9113,1.8326,2.1845,0.00,-0.12,0.47
10216,-0.9147,1.8338,2.1860,0.00,-0.12,0.47
10225,-0.9144,1.8318,2.1877,0.00,-0.12,0.47
10234,-0.9162,1.8326,2.1859,0.00,-0.12,0.47
10243,-0.9140,1.8332,2.1856,0.00,-0.12,0.47
10252,-0.9141,1.8323,2.1838,0.00,-0.12,0.47
10261,-0.9142,1.8344,2.1856,0.00,-0.12,0.47
10270,-0.9133,1.8316,2.1853,0.00,-0.12,0.47
10279,-0.9161,1.8339,2.1853,0.00,-0.12,0.47
10288,-0.9141,1.8322,2.1864,0.00,-0.12,0.47
10297,-0.9136,1.8325,2.1866,0.00,-0.12,0.47
10306,-0.9137,1.8336,2.1865,0.00,-0.12,0.47
10315,-0.9157,1.8336,2.1864,0.00,-0.12,0.47
10324,-0.9161,1.8312,2.1856,0.00,-0.12,0.47
10333,-0.9138,1.8329,2.1875,0.00,-0.12,0.47
10342,-0.9134,1.8333,2.1874,0.00,-0.12,0.47
10351,-0.9140,1.8310,2.1859,0.00,-0.12,0.47
10360,-0.9164,1.8320,2.1866,0.00,-0.12,0.47
10369,-0.9134,1.8319,2.1863,0.00,-0.12,0.47
10378,-0.9145,1.8327,2.1853,0.00,-0.12,0.47
10387,-0.9132,1.8335,2.1857,0.00,-0.12,0.47
10396,-0.9139,1.8319,2.1867,0.00,-0.12,0.47
10405,-0.9150,1.8334,2.1847,0.00,-0.12,0.47
10414,-0.9158,1.8323,2.1874,0.00,-0.12,0.47
10423,-0.9130,1.8328,2.1856,0.00,-0.12,0.47
10432,-0.9131,1.8330,2.1851,0.00,-0.12,0.47
10441,-0.9133,1.8332,2.1841,0.00,-0.12,0.47
10450,-0.9162,1.8336,2.1850,0.00,-0.12,0.47
10459,-0.9144,1.8331,2.1848,0.00,-0.12,0.47
10468,-0.9136,1.8344,2.1859,0.00,-0.12,0.47
10477,-0.9136,1.8337,2.1855,0.00,-0.12,0.47
10486,-0.9125,1.8331,2.1845,0.00,-0.12,0.47
10495,-0.9136,1.8320,2.1854,0.00,-0.12,0.47
10504,-0.9148,1.8322,2.1857,0.00,-0.12,0.47
10513,-0.9154,1.8343,2.1833,0.00,-0.12,0.47
10522,-0.9148,1.8318,2.1847,0.00,-0.12,0.47
10531,-0.9134,1.8318,2.1844,0.00,-0.12,0.47
10540,-0.9153,1.8345,2.1873,0.00,-0.12,0.47
10549,-0.9127,1.8330,2.1856,0.00,-0.12,0.47
10558,-0.9154,1.8314,2.1856,0.00,-0.12,0.47
10567,-0.9159,1.8318,2.1859,0.00,-0.12,0.47
10576,-0.9154,1.8338,2.1860,0.00,-0.12,0.47
10585,-0.9143,1.8330,2.1832,0.00,-0.12,0.47
10594,-0.9167,1.8327,2.1865,0.00,-0.12,0.47
10603,-0.9133,1.8335,2.1863,0.00,-0.12,0.47
10612,-0.9141,1.8331,2.1854,0.00,-0.12,0.47
10621,-0.9129,1.8336,2.1857,0.00,-0.12,0.47
10630,-0.9188,1.8340,2.1865,0.00,-0.12,0.47
10639,-0.9139,1.8330,2.1856,0.00,-0.12,0.47
10648,-0.9123,1.8333,2.1847,0.00,-0.12,0.47
10657,-0.9122,1.8324,2.1844,0.00,-0.12,0.47
10666,-0.9164,1.8342,2.1851,0.00,-0.12,0.47
10675,-0.9134,1.8331,2.1858,0.00,-0.12,0.47
10684,-0.9140,1.8345,2.1859,0.00,-0.12,0.47
10693,-0.9121,1.8319,2.1855,0.00,-0.12,0.47
10702,-0.9158,1.8326,2.1843,0.00,-0.12,0.47
10711,-0.9142,1.8317,2.1862,0.00,-0.12,0.47
10720,-0.9134,1.8322,2.1840,0.00,-0.12,0.47
10729,-0.9133,1.8332,2.1868,0.00,-0.12,0.47
10738,-0.9123,1.8327,2.1870,0.00,-0.12,0.47
10747,-0.9144,1.8338,2.1862,0.00,-0.12,0.47
10756,-0.9139,1.8331,2.1838,0.00,-0.12,0.47
10765,-0.9141,1.8323,2.1851,0.00,-0.12,0.47
10774,-0.9130,1.8334,2.1847,0.00,-0.12,0.47
10783,-0.9127,1.8321,2.1843,0.00,-0.12,0.47
10792,-0.9136,1.8320,2.1857,0.00,-0.12,0.47
10801,-0.9154,1.8321,2.1870,0.00,-0.12,0.47
10810,-0.9152,1.8328,2.1844,0.00,-0.12,0.47
10819,-0.9146,1.8329,2.1855,0.00,-0.12,0.47
10828,-0.9140,1.8353,2.1851,0.00,-0.12,0.47
10837,-0.9147,1.8332,2.1855,0.00,-0.12,0.47
10846,-0.9117,1.8329,2.1861,0.00,-0.12,0.47
10855,-0.9156,1.8337,2.1853,0.00,-0.12,0.47
10864,-0.9164,1.8317,2.1852,0.00,-0.12,0.47
10873,-0.9150,1.8319,2.1857,0.00,-0.12,0.47
10882,-0.9131,1.8329,2.1860,0.00,-0.12,0.47
10891,-0.9154,1.8342,2.1849,0.00,-0.12,0.47
10900,-0.9144,1.8342,2.1852,0.00,-0.12,0.47
10909,-0.9129,1.8340,2.1863,0.00,-0.12,0.47
10918,-0.9165,1.8297,2.1862,0.00,-0.12,0.47
10927,-0.9130,1.8322,2.1848,0.00,-0.12,0.47
10936,-0.9140,1.8339,2.1858,0.00,-0.12,0.47
10945,-0.9130,1.8329,2.1862,0.00,-0.12,0.47
10954,-0.9152,1.8339,2.1900,0.00,-0.12,0.47
10963,-0.9148,1.8341,2.1868,0.00,-0.12,0.47
10972,-0.9146,1.8331,2.1861,0.00,-0.12,0.47
10981,-0.9142,1.8320,2.1874,0.00,-0.12,0.47
10990,-0.9115,1.8338,2.1865,0.00,-0.12,0.47
10999,-0.9138,1.8320,2.1852,0.00,-0.12,0.47
11008,-0.9140,1.8335,2.1871,0.00,-0.12,0.47
11017,-0.9135,1.8311,2.1869,0.00,-0.12,0.47
11026,-0.9146,1.8338,2.1853,0.00,-0.12,0.47
11035,-0.9157,1.8344,2.1869,0.00,-0.12,0.47
11044,-0.9140,1.8324,2.1844,0.00,-0.12,0.47
11053,-0.9121,1.8342,2.1865,0.00,-0.12,0.47
11062,-0.9134,1.8335,2.1861,0.00,-0.12,0.47
11071,-0.9146,1.8305,2.1848,0.00,-0.12,0.47
11080,-0.9145,1.8318,2.1866,0.00,-0.12,0.47
11089,-0.9119,1.8328,2.1859,0.00,-0.12,0.47
11098,-0.9065,1.8310,2.1855,0.00,-0.12,0.47
11107,-0.9135,1.8330,2.1861,0.00,-0.12,0.47
11116,-0.9135,1.8344,2.1840,0.00,-0.12,0.47
11125,-0.9131,1.8323,2.1846,0.00,-0.12,0.47
11134,-0.9129,1.8334,2.1851,0.00,-0.12,0.47
11143,-0.9142,1.8340,2.1852,0.00,-0.12,0.47
11152,-0.9160,1.8339,2.1845,0.00,-0.12,0.47
11161,-0.9175,1.8325,2.1838,0.00,-0.12,0.47
11170,-0.9129,1.8338,2.1863,0.00,-0.12,0.47
11179,-0.9145,1.8329,2.1867,0.00,-0.12,0.47
11188,-0.9149,1.8323,2.1873,0.00,-0.12,0.47
11197,-0.9128,1.8332,2.1851,0.00,-0.12,0.47
11206,-0.9150,1.8328,2.1866,0.00,-0.12,0.47
11215,-0.9149,1.8318,2.1856,0.00,-0.12,0.47
11224,-0.9149,1.8330,2.1857,0.00,-0.12,0.47
11233,-0.9144,1.8332,2.1848,0.00,-0.12,0.47
11242,-0.9136,1.8331,2.1856,0.00,-0.12,0.47
11251,-0.9152,1.8325,2.1860,0.00,-0.12,0.47
11260,-0.9127,1.8323,2.1843,0.00,-0.12,0.47
11269,-0.9127,1.8338,2.1843,0.00,-0.12,0.47
11278,-0.9135,1.8313,2.1827,0.00,-0.12,0.47
11287,-0.9162,1.8320,2.1855,0.00,-0.12,0.47
11296,-0.9159,1.8322,2.1851,0.00,-0.12,0.47
11305,-0.9146,1.8305,2.1863,0.00,-0.12,0.47
11314,-0.9131,1.8322,2.1854,0.00,-0.12,0.47
11323,-0.9131,1.8309,2.1870,0.00,-0.12,0.47
11332,-0.9170,1.8321,2.1870,0.00,-0.12,0.47
11341,-0.9143,1.8324,2.1852,0.00,-0.12,0.47
11350,-0.9154,1.8331,2.1846,0.00,-0.12,0.47
11359,-0.9138,1.8326,2.1852,0.00,-0.12,0.47
11368,-0.9119,1.8341,2.1848,0.00,-0.12,0.47
11377,-0.9166,1.8339,2.1865,0.00,-0.12,0.47
11386,-0.9135,1.8319,2.1845,0.00,-0.12,0.47
11395,-0.9161,1.8330,2.1839,0.00,-0.12,0.47
11404,-0.9127,1.8326,2.1854,0.00,-0.12,0.47
11413,-0.9151,1.8326,2.1850,0.00,-0.12,0.47
11422,-0.9157,1.8320,2.1868,0.00,-0.12,0.47
11431,-0.9147,1.8345,2.1834,0.00,-0.12,0.47
11440,-0.9129,1.8344,2.1857,0.00,-0.12,0.47
11449,-0.9159,1.8325,2.1842,0.00,-0.12,0.47
11458,-0.9140,1.8327,2.1853,0.00,-0.12,0.47
11467,-0.9139,1.8333,2.1837,0.00,-0.12,0.47
11476,-0.9148,1.8319,2.1845,0.00,-0.12,0.47
11485,-0.9149,1.8335,2.1860,0.00,-0.12,0.47
11494,-0.9141,1.8332,2.1855,0.00,-0.12,0.47
11503,-0.9161,1.8334,2.1857,0.00,-0.12,0.47
11512,-0.9141,1.8307,2.1864,0.00,-0.12,0.47
11521,-0.9128,1.8319,2.1862,0.00,-0.12,0.47
11530,-0.9138,1.8339,2.1855,0.00,-0.12,0.47
11539,-0.9144,1.8336,2.1867,0.00,-0.12,0.47
11548,-0.9132,1.8297,2.1859,0.00,-0.12,0.47
11557,-0.9119,1.8330,2.1849,0.00,-0.12,0.47
11566,-0.9176,1.8329,2.1877,0.00,-0.12,0.47
11575,-0.9128,1.8319,2.1871,0.00,-0.12,0.47
11584,-0.9121,1.8328,2.1864,0.00,-0.12,0.47
11593,-0.9143,1.8300,2.1842,0.00,-0.12,0.47
11602,-0.9139,1.8341,2.1846,0.00,-0.12,0.47
11611,-0.9130,1.8335,2.1848,0.00,-0.12,0.47
11620,-0.9130,1.8323,2.1856,0.00,-0.12,0.47
11629,-0.9129,1.8329,2.1870,0.00,-0.12,0.47
11638,-0.9149,1.8317,2.1865,0.00,-0.12,0.47
11647,-0.9149,1.8311,2.1866,0.00,-0.12,0.47
11656,-0.9103,1.8322,2.1850,0.00,-0.12,0.47
11665,-0.9147,1.8316,2.1869,0.00,-0.12,0.47
11674,-0.9156,1.8332,2.1858,0.00,-0.12,0.47
11683,-0.9148,1.8337,2.1864,0.00,-0.12,0.47
11692,-0.9153,1.8321,2.1849,0.00,-0.12,0.47
11701,-0.9154,1.8349,2.1858,0.00,-0.12,0.47
11710,-0.9127,1.8332,2.1837,0.00,-0.12,0.47
11719,-0.9087,1.8322,2.1852,0.00,-0.12,0.47
11728,-0.9136,1.8326,2.1854,0.00,-0.12,0.47
11737,-0.9133,1.8313,2.1858,0.00,-0.12,0.47
11746,-0.9133,1.8319,2.1911,0.00,-0.12,0.47
11755,-0.9124,1.8335,2.1869,0.00,-0.12,0.47
11764,-0.9140,1.8311,2.1844,0.00,-0.12,0.47
11773,-0.9127,1.8321,2.1851,0.00,-0.12,0.47
11782,-0.9136,1.8312,2.1878,0.00,-0.12,0.47
11791,-0.9146,1.8323,2.1858,0.00,-0.12,0.47
11800,-0.9140,1.8295,2.1850,0.00,-0.12,0.47
11809,-0.9152,1.8328,2.1848,0.00,-0.12,0.47
11818,-0.9120,1.8317,2.1851,0.00,-0.12,0.47
11827,-0.9118,1.8330,2.1842,0.00,-0.12,0.47
11836,-0.9127,1.8322,2.1839,0.00,-0.12,0.47
11845,-0.9159,1.8330,2.1865,0.00,-0.12,0.47
11854,-0.9136,1.8317,2.1848,0.00,-0.12,0.47
11863,-0.9125,1.8319,2.1868,0.00,-0.12,0.47
11872,-0.9165,1.8337,2.1858,0.00,-0.12,0.47
11881,-0.9134,1.8315,2.1820,0.00,-0.12,0.47
11890,-0.9122,1.8333,2.1860,0.00,-0.12,0.47
11899,-0.9144,1.8332,2.1866,0.00,-0.12,0.47
11908,-0.9143,1.8323,2.1858,0.00,-0.12,0.47
11917,-0.9140,1.8325,2.1893,0.00,-0.12,0.47
11926,-0.9146,1.8318,2.1869,0.00,-0.12,0.47
11935,-0.9143,1.8307,2.1860,0.00,-0.12,0.47
11944,-0.9143,1.8334,2.1864,0.00,-0.12,0.47
11953,-0.9209,1.8328,2.1850,0.00,-0.12,0.47
11962,-0.9156,1.8314,2.1862,0.00,-0.12,0.47
11971,-0.9142,1.8319,2.1860,0.00,-0.12,0.47
11980,-0.9138,1.8332,2.1811,0.00,-0.12,0.47
11989,-0.9139,1.8334,2.1864,0.00,-0.12,0.47
11998,-0.9131,1.8328,2.1871,0.00,-0.12,0.47
12007,-0.9113,1.8344,2.1866,0.00,-0.12,0.47
12016,-0.9169,1.8316,2.1865,0.00,-0.12,0.47
12025,-0.9162,1.8317,2.1854,0.00,-0.12,0.47
12034,-0.9155,1.8346,2.1866,0.00,-0.12,0.47
12043,-0.9149,1.8327,2.1841,0.00,-0.12,0.47
12052,-0.9126,1.8340,2.1850,0.00,-0.12,0.47
12061,-0.9137,1.8319,2.1852,0.00,-0.12,0.47
12070,-0.9138,1.8328,2.1873,0.00,-0.12,0.47
12079,-0.9155,1.8328,2.1864,0.00,-0.12,0.47
12088,-0.9156,1.8333,2.1866,0.00,-0.12,0.47
12097,-0.9132,1.8312,2.1856,0.00,-0.12,0.47
12106,-0.9138,1.8342,2.1855,0.00,-0.12,0.47
12115,-0.9144,1.8326,2.1855,0.00,-0.12,0.47
12124,-0.9094,1.8325,2.1857,0.00,-0.12,0.47
12133,-0.9137,1.8335,2.1856,0.00,-0.12,0.47
12142,-0.9123,1.8322,2.1863,0.00,-0.12,0.47
12151,-0.9125,1.8320,2.1842,0.00,-0.12,0.47
12160,-0.9126,1.8336,2.1856,0.00,-0.12,0.47
12169,-0.9136,1.8313,2.1854,0.00,-0.12,0.47
12178,-0.9160,1.8333,2.1835,0.00,-0.12,0.47
12187,-0.9135,1.8321,2.1841,0.00,-0.12,0.47
12196,-0.9133,1.8341,2.1852,0.00,-0.12,0.47
12205,-0.9157,1.8334,2.1851,0.00,-0.12,0.47
12214,-0.9151,1.8346,2.1848,0.00,-0.12,0.47
12223,-0.9130,1.8316,2.1864,0.00,-0.12,0.47
12232,-0.9144,1.8308,2.1878,0.00,-0.12,0.47
12241,-0.9132,1.8323,2.1843,0.00,-0.12,0.47
12250,-0.9127,1.8334,2.1867,0.00,-0.12,0.47
12259,-0.9140,1.8340,2.1848,0.00,-0.12,0.47
12268,-0.9125,1.8326,2.1848,0.00,-0.12,0.47
12277,-0.9149,1.8329,2.1837,0.00,-0.12,0.47
12286,-0.9149,1.8315,2.1852,0.00,-0.12,0.47
12295,-0.9146,1.8330,2.1854,0.00,-0.12,0.47
12304,-0.9142,1.8287,2.1822,0.00,-0.12,0.47
12313,-0.9131,1.8315,2.1854,0.00,-0.12,0.47
12322,-0.9150,1.8337,2.1863,0.00,-0.12,0.47
12331,-0.9146,1.8324,2.1863,0.00,-0.12,0.47
12340,-0.9140,1.8321,2.1849,0.00,-0.12,0.47
12349,-0.9131,1.8333,2.1857,0.00,-0.12,0.47
12358,-0.9127,1.8331,2.1867,0.00,-0.12,0.47
12367,-0.9160,1.8320,2.1854,0.00,-0.12,0.47
12376,-0.9138,1.8329,2.1857,0.00,-0.12,0.47
12385,-0.9141,1.8336,2.1853,0.00,-0.12,0.47
12394,-0.9139,1.8332,2.1846,0.00,-0.12,0.47
12403,-0.9139,1.8332,2.1841,0.00,-0.12,0.47
12412,-0.9123,1.8329,2.1882,0.00,-0.12,0.47
12421,-0.9197,1.8334,2.1870,0.00,-0.12,0.47
12430,-0.9149,1.8322,2.1862,-0.12,-0.01,0.47
12439,-0.9147,1.8336,2.1866,-0.12,-0.01,1.03
12448,-0.9130,1.8338,2.1849,-0.12,-0.01,1.02
12457,-0.9139,1.8331,2.1855,-0.12,-0.01,1.03
12466,-0.9141,1.8336,2.1848,-0.12,-0.01,1.03
12475,-0.9138,1.8311,2.1850,-0.12,-0.02,1.03
12484,-0.9129,1.8321,2.1851,-0.12,-0.01,1.03
12493,-0.9151,1.8331,2.1871,-0.12,-0.01,1.03
12502,-0.9149,1.8332,2.1850,-0.12,-0.02,1.03
12511,-0.9148,1.8341,2.1846,-0.12,-0.01,1.03
12520,-0.9138,1.8315,2.1860,-0.12,-0.02,1.03
12529,-0.9138,1.8327,2.1847,-0.12,-0.02,1.03
12538,-0.9144,1.8334,2.1843,-0.12,-0.02,1.03
12547,-0.9146,1.8332,2.1842,-0.12,-0.01,1.03
12556,-0.9141,1.8321,2.1843,-0.12,-0.01,1.03
12565,-0.9140,1.8326,2.1860,-0.12,-0.02,1.03
12574,-0.9150,1.8314,2.1869,-0.12,-0.01,1.03
12583,-0.9135,1.8318,2.1864,-0.12,-0.02,1.03
12592,-0.9131,1.8355,2.1875,-0.12,-0.02,1.03
12601,-0.9148,1.8322,2.1848,-0.12,-0.01,1.03
12610,-0.9127,1.8324,2.1869,-0.12,-0.01,1.03
12619,-0.9130,1.8317,2.1864,-0.12,-0.01,1.03
12628,-0.9141,1.8344,2.1856,-0.12,-0.02,1.03
12637,-0.9120,1.8311,2.1852,-0.12,-0.01,1.03
12646,-0.9124,1.8320,2.1868,-0.12,-0.01,1.03
12655,-0.9134,1.8342,2.1868,-0.12,-0.01,1.03
12664,-0.9146,1.8334,2.1852,-0.12,-0.01,1.03
12673,-0.9131,1.8332,2.1861,-0.12,-0.01,1.03
12682,-0.9130,1.8331,2.1852,-0.12,-0.01,1.02
12691,-0.9142,1.8319,2.1851,-0.12,-0.02,1.02
12700,-0.9116,1.8318,2.1847,-0.12,-0.02,1.03
12709,-0.9146,1.8334,2.1862,-0.12,-0.02,1.03
12718,-0.9136,1.8321,2.1872,-0.12,-0.01,1.02
12727,-0.9135,1.8315,2.1850,-0.12,-0.02,1.03
12736,-0.9149,1.8316,2.1847,-0.12,-0.02,1.03
12745,-0.9158,1.8324,2.1862,-0.12,-0.01,1.02
12754,-0.9130,1.8331,2.1861,-0.12,-0.01,1.02
12763,-0.9141,1.8323,2.1856,-0.12,-0.01,1.03
12772,-0.9146,1.8324,2.1870,-0.12,-0.01,1.03
12781,-0.9127,1.8330,2.1867,-0.12,-0.01,1.02
12790,-0.9139,1.8342,2.1849,-0.12,-0.01,1.03
12799,-0.9151,1.8333,2.1860,-0.12,-0.01,1.03
12808,-0.9144,1.8334,2.1867,-0.12,-0.02,1.03
12817,-0.9135,1.8328,2.1849,-0.12,-0.01,1.03
12826,-0.9129,1.8353,2.1846,-0.12,-0.02,1.03
12835,-0.9132,1.8319,2.1852,-0.12,-0.02,1.03
12844,-0.9139,1.8322,2.1863,-0.12,-0.02,1.03
12853,-0.9147,1.8338,2.1854,-0.12,-0.01,1.03
12862,-0.9129,1.8290,2.1841,-0.12,-0.01,1.03
12871,-0.9152,1.8321,2.1860,-0.12,-0.02,1.02
12880,-0.9142,1.8328,2.1848,-0.12,-0.02,1.03
12889,-0.9142,1.8331,2.1869,-0.12,-0.01,1.03
12898,-0.9139,1.8339,2.1856,-0.12,-0.01,1.02
12907,-0.9137,1.8319,2.1850,-0.12,-0.01,1.03
12916,-0.9143,1.8321,2.1856,-0.12,-0.01,1.02
12925,-0.9156,1.8327,2.1865,-0.12,-0.01,1.02
12934,-0.9133,1.8336,2.1848,-0.12,-0.02,1.03
12943,-0.9168,1.8335,2.1851,-0.12,-0.02,1.03
12952,-0.9165,1.8329,2.1856,-0.12,-0.02,1.03
12961,-0.9136,1.8311,2.1851,-0.12,-0.01,1.02
12970,-0.9151,1.8350,2.1859,-0.12,-0.01,1.03
12979,-0.9139,1.8334,2.1842,-0.12,-0.01,1.03
12988,-0.9161,1.8325,2.1843,-0.12,-0.01,1.03
12997,-0.9157,1.8326,2.1848,-0.12,-0.01,1.03
13006,-0.9138,1.8335,2.1844,-0.12,-0.01,1.03
13015,-0.9142,1.8338,2.1859,-0.12,-0.01,1.03
13024,-0.9145,1.8335,2.1836,-0.12,-0.01,1.03
13033,-0.9122,1.8330,2.1858,-0.12,-0.02,1.03
13042,-0.9150,1.8336,2.1872,-0.12,-0.02,1.03
13051,-0.9132,1.8332,2.1862,-0.12,-0.02,1.02
13060,-0.9155,1.8338,2.1864,-0.12,-0.01,1.03
13069,-0.9132,1.8343,2.1855,-0.12,-0.01,1.03
13078,-0.9125,1.8330,2.1852,-0.12,-0.01,1.03
13087,-0.9158,1.8343,2.1852,-0.12,-0.01,1.02
13096,-0.9144,1.8319,2.1848,-0.12,-0.02,1.03
13105,-0.9149,1.8337,2.1850,-0.12,-0.02,1.03
13114,-0.9153,1.8325,2.1864,-0.12,-0.01,1.02
13123,-0.9145,1.8326,2.1860,-0.12,-0.01,1.03
13132,-0.9123,1.8324,2.1843,-0.12,-0.01,1.02
13141,-0.9134,1.8329,2.1868,-0.12,-0.01,1.02
13150,-0.9140,1.8335,2.1884,-0.12,-0.01,1.02
13159,-0.9138,1.8323,2.1869,-0.12,-0.01,1.03
13168,-0.9143,1.8341,2.1862,-0.12,-0.01,1.03
13177,-0.9141,1.8340,2.1853,-0.12,-0.01,1.02
13186,-0.9146,1.8306,2.1851,-0.12,-0.02,1.03
13195,-0.9147,1.8322,2.1852,-0.12,-0.02,1.03
13204,-0.9146,1.8316,2.1853,-0.12,-0.02,1.03
13213,-0.9153,1.8323,2.1855,-0.12,-0.01,1.02
13222,-0.9149,1.8324,2.1834,-0.12,-0.02,1.03
13231,-0.9128,1.8342,2.1864,-0.12,-0.02,1.03
13240,-0.9151,1.8321,2.1862,-0.12,-0.02,1.03
13249,-0.9142,1.8339,2.1853,-0.12,-0.01,1.02
13258,-0.9140,1.8325,2.1865,-0.12,-0.01,1.02
13267,-0.9133,1.8328,2.1828,-0.12,-0.02,1.03
13276,-0.9140,1.8326,2.1848,-0.12,-0.01,1.03
13285,-0.9145,1.8332,2.1857,-0.12,-0.01,1.03
13294,-0.9137,1.8338,2.1857,-0.12,-0.01,1.03
13303,-0.9150,1.8325,2.1850,-0.12,-0.02,1.03
13312,-0.9131,1.8338,2.1859,-0.12,-0.02,1.02
13321,-0.9119,1.8310,2.1857,-0.12,-0.02,1.02
13330,-0.9144,1.8321,2.1842,-0.12,-0.01,1.03
13339,-0.9149,1.8308,2.1868,-0.12,-0.01,1.03
13348,-0.9149,1.8327,2.1834,-0.12,-0.01,1.03
13357,-0.9146,1.8343,2.1863,-0.12,-0.01,1.03
13366,-0.9168,1.8308,2.1853,-0.12,-0.02,1.03
13375,-0.9146,1.8317,2.1849,-0.12,-0.02,1.03
13384,-0.9138,1.8337,2.1869,-0.12,-0.02,1.03
13393,-0.9128,1.8326,2.1873,-0.12,-0.01,1.03
13402,-0.9135,1.8340,2.1873,-0.12,-0.01,1.02
13411,-0.9149,1.8331,2.1876,-0.12,-0.01,1.02
13420,-0.9137,1.8317,2.1859,-0.12,-0.02,1.03
13429,-0.9140,1.8337,2.1873,-0.12,-0.02,1.03
13438,-0.9145,1.8330,2.1838,-0.12,-0.01,1.02
13447,-0.9137,1.8329,2.1878,-0.12,-0.01,1.02
13456,-0.9153,1.8331,2.1854,-0.12,-0.01,1.03
13465,-0.9130,1.8329,2.1861,-0.12,-0.01,1.03
13474,-0.9149,1.8339,2.1842,-0.12,-0.01,1.03
13483,-0.9145,1.8337,2.1865,-0.12,-0.02,1.03
13492,-0.9154,1.8333,2.1862,-0.12,-0.02,1.03
13501,-0.9142,1.8328,2.1863,-0.12,-0.01,1.03
13510,-0.9134,1.8325,2.1863,-0.12,-0.01,1.03
13519,-0.9141,1.8316,2.1866,-0.12,-0.02,1.03
13528,-0.9155,1.8328,2.1844,-0.12,-0.01,1.03
13537,-0.9136,1.8318,2.1857,-0.12,-0.01,1.03
13546,-0.9152,1.8322,2.1848,-0.12,-0.01,1.03
13555,-0.9113,1.8330,2.1851,-0.12,-0.01,1.02
13564,-0.9149,1.8324,2.1830,-0.12,-0.01,1.02
13573,-0.9129,1.8332,2.1876,-0.12,-0.02,1.03
13582,-0.9135,1.8330,2.1859,-0.12,-0.01,1.02
13591,-0.9130,1.8332,2.1850,-0.12,-0.01,1.02
13600,-0.9145,1.8327,2.1846,-0.12,-0.01,1.03
13609,-0.9155,1.8335,2.1859,-0.12,-0.02,1.03
13618,-0.9144,1.8320,2.1861,-0.12,-0.01,1.02
13627,-0.9137,1.8323,2.1838,-0.12,-0.01,1.02
13636,-0.9141,1.8318,2.1858,-0.12,-0.02,1.03
13645,-0.9143,1.8331,2.1858,-0.12,-0.01,1.03
13654,-0.9134,1.8340,2.1856,-0.12,-0.01,1.03
13663,-0.9143,1.8327,2.1841,-0.12,-0.02,1.03
13672,-0.9145,1.8321,2.1862,-0.12,-0.02,1.03
13681,-0.9143,1.8335,2.1857,-0.12,-0.02,1.03
13690,-0.9116,1.8336,2.1866,-0.12,-0.02,1.03
13699,-0.9146,1.8337,2.1852,-0.12,-0.01,1.03
13708,-0.9131,1.8322,2.1856,-0.12,-0.01,1.03
13717,-0.9135,1.8323,2.1860,-0.12,-0.01,1.03
13726,-0.9126,1.8338,2.1857,-0.12,-0.01,1.02
13735,-0.9129,1.8308,2.1859,-0.12,-0.02,1.03
13744,-0.9152,1.8311,2.1862,-0.12,-0.01,1.03
13753,-0.9132,1.8296,2.1855,-0.12,-0.01,1.03
13762,-0.9154,1.8321,2.1868,-0.12,-0.01,1.03
13771,-0.9139,1.8325,2.1862,-0.12,-0.02,1.03
13780,-0.9139,1.8321,2.1845,-0.12,-0.02,1.03
13789,-0.9146,1.8347,2.1854,-0.12,-0.01,1.02
13798,-0.9141,1.8336,2.1861,-0.12,-0.01,1.03
13807,-0.9137,1.8322,2.1839,-0.12,-0.02,1.03
13816,-0.9156,1.8329,2.1845,-0.12,-0.02,1.02
13825,-0.9140,1.8319,2.1867,-0.12,-0.01,1.03
13834,-0.9161,1.8337,2.1834,-0.12,-0.02,1.03
13843,-0.9140,1.8324,2.1875,-0.12,-0.02,1.03
13852,-0.9152,1.8327,2.1871,-0.12,-0.02,1.02
13861,-0.9144,1.8327,2.1853,-0.12,-0.02,1.02
13870,-0.9127,1.8332,2.1846,-0.12,-0.02,1.02
13879,-0.9138,1.8320,2.1874,-0.12,-0.01,1.03
13888,-0.9129,1.8327,2.1851,-0.12,-0.01,1.02
13897,-0.9151,1.8335,2.1862,-0.12,-0.01,1.02
13906,-0.9146,1.8320,2.1858,-0.12,-0.01,1.03
13915,-0.9143,1.8321,2.1853,-0.12,-0.01,1.02
13924,-0.9138,1.8326,2.1850,-0.12,-0.02,1.03
13933,-0.9149,1.8342,2.1837,-0.12,-0.02,1.03
13942,-0.9145,1.8341,2.1852,-0.12,-0.02,1.02
13951,-0.9131,1.8317,2.1871,-0.12,-0.01,1.03
13960,-0.9156,1.8330,2.1859,-0.12,-0.01,1.03
13969,-0.9146,1.8339,2.1865,-0.12,-0.01,1.02
13978,-0.9133,1.8320,2.1861,-0.12,-0.02,1.02
13987,-0.9141,1.8343,2.1846,-0.12,-0.01,1.03
13996,-0.9132,1.8337,2.1859,-0.12,-0.01,1.03
14005,-0.9130,1.8329,2.1871,-0.12,-0.01,1.03
14014,-0.9129,1.8326,2.1866,-0.12,-0.02,1.03
14023,-0.9135,1.8333,2.1869,-0.12,-0.02,1.03
14032,-0.9145,1.8324,2.1875,-0.12,-0.01,1.02
14041,-0.9149,1.8314,2.1873,-0.12,-0.01,1.02
14050,-0.9136,1.8331,2.1847,-0.12,-0.02,1.02
14059,-0.9135,1.8334,2.1855,-0.12,-0.02,1.02
14068,-0.9134,1.8326,2.1890,-0.12,-0.02,1.03
14077,-0.9157,1.8333,2.1869,-0.12,-0.01,1.03
14086,-0.9156,1.8323,2.1873,-0.12,-0.01,1.03
14095,-0.9153,1.8320,2.1877,-0.12,-0.01,1.02
14104,-0.9134,1.8320,2.1860,-0.12,-0.02,1.03
14113,-0.9148,1.8323,2.1853,-0.12,-0.01,1.03
14122,-0.9139,1.8331,2.1854,-0.12,-0.01,1.02
14131,-0.9140,1.8341,2.1850,-0.12,-0.02,1.03
14140,-0.9134,1.8332,2.1839,-0.12,-0.01,1.03
14149,-0.9117,1.8318,2.1843,-0.12,-0.01,1.03
14158,-0.9125,1.8324,2.1860,-0.12,-0.01,1.02
14167,-0.9139,1.8308,2.1857,-0.12,-0.02,1.03
14176,-0.9141,1.8331,2.1849,-0.12,-0.02,1.03
14185,-0.9126,1.8316,2.1847,-0.12,-0.01,1.03
14194,-0.9143,1.8316,2.1835,-0.12,-0.01,1.02
14203,-0.9124,1.8325,2.1844,-0.12,-0.02,1.02
14212,-0.9176,1.8334,2.1863,-0.12,-0.02,1.03
14221,-0.9143,1.8318,2.1860,-0.12,-0.01,1.02
14230,-0.9151,1.8315,2.1866,-0.12,-0.02,1.03
14239,-0.9133,1.8346,2.1864,-0.12,-0.02,1.03
14248,-0.9106,1.8319,2.1858,-0.12,-0.02,1.03
14257,-0.9128,1.8293,2.1868,-0.12,-0.01,1.02
14266,-0.9126,1.8332,2.1858,-0.12,-0.01,1.02
14275,-0.9132,1.8336,2.1847,-0.12,-0.01,1.03
14284,-0.9142,1.8341,2.1870,-0.12,-0.01,1.03
14293,-0.9137,1.8325,2.1868,-0.12,-0.01,1.03
14302,-0.9155,1.8327,2.1857,-0.12,-0.01,1.03
14311,-0.9137,1.8341,2.1878,-0.12,-0.01,1.03
14320,-0.9133,1.8317,2.1863,-0.12,-0.01,1.02
14329,-0.9134,1.8341,2.1855,-0.12,-0.01,1.02
14338,-0.9140,1.8324,2.1871,-0.12,-0.02,1.03
14347,-0.9122,1.8327,2.1864,-0.12,-0.01,1.03
14356,-0.9142,1.8328,2.1856,-0.12,-0.02,1.02
14365,-0.9150,1.8301,2.1870,-0.12,-0.02,1.02
14374,-0.9147,1.8331,2.1861,-0.12,-0.02,1.03
14383,-0.9131,1.8321,2.1845,-0.12,-0.01,1.02
14392,-0.9151,1.8323,2.1855,-0.12,-0.01,1.02
14401,-0.9139,1.8325,2.1850,-0.12,-0.01,1.03
14410,-0.9123,1.8325,2.1861,-0.12,-0.01,1.03
14419,-0.9127,1.8328,2.1856,-0.12,-0.02,1.03
14428,-0.9148,1.8323,2.1868,-0.12,-0.02,1.02
14437,-0.9138,1.8308,2.1866,-0.12,-0.01,1.03
14446,-0.9140,1.8331,2.1860,-0.12,-0.02,1.03
14455,-0.9146,1.8351,2.1873,-0.12,-0.02,1.03
14464,-0.9153,1.8350,2.1871,-0.12,-0.02,1.03
14473,-0.9136,1.8341,2.1854,-0.12,-0.01,1.02
14482,-0.9149,1.8321,2.1864,-0.12,-0.01,1.02
14491,-0.9124,1.8332,2.1849,-0.12,-0.02,1.03
14500,-0.9143,1.8335,2.1865,-0.12,-0.01,1.03
14509,-0.9150,1.8329,2.1870,-0.12,-0.01,1.03
14518,-0.9137,1.8333,2.1848,-0.12,-0.01,1.03
14527,-0.9130,1.8326,2.1838,-0.12,-0.01,1.03
14536,-0.9129,1.8344,2.1849,-0.12,-0.01,1.02
14545,-0.9138,1.8350,2.1866,-0.12,-0.01,1.02
14554,-0.9145,1.8336,2.1863,-0.12,-0.01,1.03
14563,-0.9143,1.8336,2.1873,-0.12,-0.02,1.02
14572,-0.9138,1.8327,2.1854,-0.12,-0.02,1.02
14581,-0.9172,1.8306,2.1847,-0.12,-0.01,1.02
14590,-0.9146,1.8313,2.1854,-0.12,-0.02,1.02
14599,-0.9143,1.8352,2.1869,-0.12,-0.01,1.03
14608,-0.9148,1.8332,2.1849,-0.12,-0.01,1.03
14617,-0.9130,1.8332,2.1852,-0.12,-0.01,1.03
14626,-0.9147,1.8337,2.1854,-0.12,-0.01,1.03
14635,-0.9137,1.8340,2.1839,-0.11,-0.01,1.03
14644,-0.9141,1.8311,2.1845,-0.11,-0.01,1.02
14653,-0.9149,1.8338,2.1845,-0.12,-0.01,1.03
14662,-0.9130,1.8345,2.1853,-0.12,-0.02,1.03
14671,-0.9143,1.8317,2.1843,-0.12,-0.02,1.03
14680,-0.9149,1.8318,2.1865,-0.12,-0.01,1.03
14689,-0.9136,1.8333,2.1862,-0.12,-0.01,1.03
14698,-0.9154,1.8325,2.1861,-0.12,-0.01,1.03
14707,-0.9159,1.8333,2.1862,-0.12,-0.02,1.03
14716,-0.9157,1.8323,2.1864,-0.12,-0.01,1.02
14725,-0.9132,1.8337,2.1852,-0.12,-0.01,1.02
14734,-0.9151,1.8323,2.1851,-0.12,-0.01,1.03
14743,-0.9134,1.8330,2.1871,-0.12,-0.02,1.03
14752,-0.9149,1.8321,2.1871,-0.12,-0.01,1.02
14761,-0.9142,1.8320,2.1859,-0.12,-0.01,1.02
14770,-0.9144,1.8325,2.1842,-0.12,-0.01,1.02
14779,-0.9126,1.8348,2.1852,-0.12,-0.02,1.03
14788,-0.9147,1.8330,2.1846,-0.12,-0.02,1.03
14797,-0.9145,1.8336,2.1869,-0.12,-0.01,1.03
14806,-0.9153,1.8330,2.1853,-0.12,-0.02,1.02
14815,-0.9149,1.8317,2.1856,-0.12,-0.01,1.03
14824,-0.9132,1.8340,2.1846,-0.12,-0.01,1.03
14833,-0.9150,1.8328,2.1846,-0.12,-0.01,1.02
14842,-0.9142,1.8331,2.1857,-0.12,-0.02,1.03
14851,-0.9136,1.8330,2.1861,-0.12,-0.02,1.03
14860,-0.9130,1.8332,2.1868,-0.12,-0.01,1.03
14869,-0.9122,1.8331,2.1853,-0.12,-0.01,1.03
14878,-0.9161,1.8333,2.1867,-0.12,-0.01,1.03
14887,-0.9145,1.8324,2.1859,-0.12,-0.01,1.03
14896,-0.9134,1.8324,2.1858,-0.12,-0.01,1.02
14905,-0.9130,1.8326,2.1883,-0.12,-0.02,1.03
14914,-0.9142,1.8321,2.1847,-0.12,-0.02,1.03
14923,-0.9133,1.8332,2.1856,-0.12,-0.01,1.03
14932,-0.9159,1.8326,2.1826,-0.12,-0.02,1.03
14941,-0.9131,1.8334,2.1848,-0.12,-0.02,1.03
14950,-0.9129,1.8322,2.1867,-0.12,-0.02,1.03
14959,-0.9139,1.8318,2.1828,-0.12,-0.01,1.02
14968,-0.9135,1.8350,2.1857,-0.12,-0.02,1.03
14977,-0.9138,1.8325,2.1841,-0.12,-0.02,1.03
14986,-0.9128,1.8322,2.1867,-0.12,-0.01,1.03
14995,-0.9130,1.8327,2.1838,-0.12,-0.01,1.03
15004,-0.9132,1.8346,2.1848,-0.12,-0.01,1.03
15013,-0.9130,1.8322,2.1854,-0.12,-0.02,1.03
15022,-0.9126,1.8319,2.1866,-0.12,-0.01,1.03
15031,-0.9118,1.8325,2.1858,-0.12,-0.02,1.03
15040,-0.9137,1.8317,2.1841,-0.12,-0.02,1.03
15049,-0.9131,1.8327,2.1864,-0.12,-0.01,1.03
15058,-0.9133,1.8320,2.1857,-0.12,-0.01,1.02
15067,-0.9149,1.8303,2.1866,-0.12,-0.01,1.02
15076,-0.9163,1.8321,2.1863,-0.12,-0.01,1.02
15085,-0.9136,1.8322,2.1867,-0.12,-0.02,1.03
15094,-0.9131,1.8327,2.1852,-0.12,-0.02,1.03
15103,-0.9155,1.8333,2.1870,-0.12,-0.01,1.02
15112,-0.9143,1.8308,2.1851,-0.12,-0.02,1.03
15121,-0.9122,1.8320,2.1871,-0.12,-0.01,1.02
15130,-0.9153,1.8315,2.1860,-0.12,-0.01,1.02
15139,-0.9136,1.8325,2.1855,-0.12,-0.01,1.03
15148,-0.9143,1.8351,2.1861,-0.12,-0.02,1.03
15157,-0.9153,1.8324,2.1849,-0.12,-0.02,1.03
15166,-0.9141,1.8313,2.1840,-0.12,-0.01,1.03
15175,-0.9124,1.8324,2.1862,-0.12,-0.01,1.03
15184,-0.9139,1.8334,2.1856,-0.12,-0.01,1.03
15193,-0.9120,1.8313,2.1856,-0.12,-0.01,1.03
15202,-0.9149,1.8313,2.1865,-0.12,-0.01,1.02
15211,-0.9128,1.8315,2.1856,-0.12,-0.01,1.03
15220,-0.9145,1.8326,2.1863,-0.12,-0.01,1.03
15229,-0.9128,1.8325,2.1841,-0.12,-0.02,1.02
15238,-0.9131,1.8322,2.1858,-0.12,-0.02,1.03
15247,-0.9134,1.8343,2.1851,-0.12,-0.02,1.03
15256,-0.9147,1.8310,2.1859,-0.12,-0.01,1.03
15265,-0.9136,1.8318,2.1840,-0.12,-0.01,1.03
15274,-0.9146,1.8328,2.1855,-0.12,-0.02,1.03
15283,-0.9147,1.8318,2.1846,-0.12,-0.02,1.03
15292,-0.9152,1.8324,2.1855,-0.12,-0.02,1.03
15301,-0.9139,1.8337,2.1867,-0.12,-0.01,1.03
15310,-0.9136,1.8339,2.1860,-0.12,-0.01,1.03
15319,-0.9133,1.8331,2.1864,-0.12,-0.02,1.03
15328,-0.9142,1.8323,2.1852,-0.12,-0.02,1.02
15337,-0.9156,1.8327,2.1862,-0.12,-0.02,1.02
15346,-0.9147,1.8328,2.1863,-0.12,-0.02,1.03
15355,-0.9144,1.8318,2.1873,-0.12,-0.01,1.02
15364,-0.9149,1.8330,2.1862,-0.12,-0.02,1.03
15373,-0.9136,1.8333,2.1859,-0.12,-0.02,1.03
15382,-0.9127,1.8326,2.1859,-0.12,-0.01,1.03
15391,-0.9141,1.8333,2.1861,-0.12,-0.01,1.02
15400,-0.9147,1.8341,2.1856,-0.12,-0.01,1.02
15409,-0.9142,1.8343,2.1862,-0.12,-0.02,1.03
15418,-0.9133,1.8330,2.1855,-0.12,-0.01,1.03
15427,-0.9147,1.8320,2.1854,-0.12,-0.02,1.03
15436,-0.9146,1.8326,2.1855,-0.12,-0.02,1.03
15445,-0.9143,1.8347,2.1841,-0.12,-0.02,1.03
15454,-0.9128,1.8325,2.1879,-0.12,-0.01,1.03
15463,-0.9142,1.8313,2.1843,-0.12,-0.01,1.03
15472,-0.9133,1.8338,2.1869,-0.12,-0.02,1.03
15481,-0.9133,1.8330,2.1849,-0.12,-0.02,1.03
15490,-0.9138,1.8338,2.1870,-0.12,-0.02,1.03
15499,-0.9141,1.8325,2.1846,-0.12,-0.01,1.03
15508,-0.9130,1.8329,2.1847,-0.12,-0.02,1.02
15517,-0.9136,1.8321,2.1861,-0.12,-0.02,1.03
15526,-0.9141,1.8314,2.1854,-0.12,-0.02,1.03
15535,-0.9159,1.8326,2.1851,-0.12,-0.01,1.02
15544,-0.9130,1.8327,2.1863,-0.12,-0.02,1.03
15553,-0.9139,1.8315,2.1863,-0.12,-0.02,1.03
15562,-0.9138,1.8326,2.1858,-0.12,-0.01,1.03
15571,-0.9156,1.8333,2.1837,-0.12,-0.02,1.02
15580,-0.9149,1.8327,2.1863,-0.12,-0.02,1.03
15589,-0.9131,1.8314,2.1870,-0.12,-0.02,1.03
15598,-0.9140,1.8340,2.1856,-0.12,-0.01,1.02
15607,-0.9132,1.8320,2.1859,-0.12,-0.02,1.03
15616,-0.9151,1.8322,2.1860,-0.12,-0.02,1.03
15625,-0.9149,1.8342,2.1842,-0.12,-0.01,1.03
15634,-0.9155,1.8340,2.1853,-0.12,-0.02,1.02
15643,-0.9134,1.8325,2.1847,-0.12,-0.01,1.02
15652,-0.9132,1.8330,2.1853,-0.12,-0.01,1.03
15661,-0.9152,1.8321,2.1838,-0.12,-0.01,1.02
15670,-0.9127,1.8325,2.1856,-0.12,-0.02,1.03
15679,-0.9137,1.8331,2.1854,-0.12,-0.02,1.03
15688,-0.9143,1.8332,2.1852,-0.12,-0.01,1.02
15697,-0.9142,1.8334,2.1866,-0.12,-0.02,1.03
15706,-0.9142,1.8322,2.1850,-0.12,-0.02,1.03
15715,-0.9149,1.8320,2.1847,-0.12,-0.01,1.03
15724,-0.9135,1.8311,2.1874,-0.12,-0.01,1.03
15733,-0.9132,1.8341,2.1863,-0.12,-0.01,1.03
15742,-0.9134,1.8320,2.1856,-0.12,-0.01,1.03
15751,-0.9154,1.8325,2.1837,-0.12,-0.02,1.03
15760,-0.9134,1.8337,2.1862,-0.12,-0.01,1.03
15769,-0.9158,1.8320,2.1869,-0.12,-0.01,1.03
15778,-0.9139,1.8332,2.1851,-0.12,-0.01,1.02
15787,-0.9150,1.8327,2.1864,-0.12,-0.02,1.03
15796,-0.9137,1.8346,2.1852,-0.12,-0.02,1.03
15805,-0.9149,1.8319,2.1858,-0.12,-0.01,1.03
15814,-0.9132,1.8315,2.1857,-0.12,-0.01,1.03
15823,-0.9149,1.8331,2.1864,-0.12,-0.01,1.03
15832,-0.9147,1.8319,2.1853,-0.12,-0.01,1.03
15841,-0.9132,1.8327,2.1874,-0.12,-0.01,1.02
15850,-0.9150,1.8320,2.1870,-0.12,-0.01,1.03
15859,-0.9158,1.8343,2.1864,-0.12,-0.01,1.03
15868,-0.9135,1.8327,2.1867,-0.12,-0.01,1.03
15877,-0.9144,1.8331,2.1872,-0.12,-0.01,1.02
15886,-0.9141,1.8307,2.1853,-0.12,-0.02,1.03
15895,-0.9129,1.8330,2.1871,-0.12,-0.02,1.03
15904,-0.9129,1.8326,2.1852,-0.12,-0.01,1.02
15913,-0.9139,1.8334,2.1855,-0.12,-0.01,1.03
15922,-0.9139,1.8322,2.1859,-0.12,-0.01,1.03
15931,-0.9125,1.8329,2.1849,-0.12,-0.01,1.03
15940,-0.9143,1.8324,2.1865,-0.12,-0.01,1.03
15949,-0.9136,1.8340,2.1840,-0.12,-0.01,1.03
15958,-0.9151,1.8344,2.1855,-0.12,-0.01,1.03
15967,-0.9152,1.8328,2.1855,-0.12,-0.01,1.03
15976,-0.9126,1.8322,2.1848,-0.12,-0.01,1.03
15985,-0.9145,1.8327,2.1852,-0.12,-0.01,1.03
15994,-0.9158,1.8321,2.1844,-0.12,-0.01,1.02
16003,-0.9145,1.8331,2.1857,-0.12,-0.01,1.02
16012,-0.9120,1.8315,2.1857,-0.12,-0.01,1.02
16021,-0.9137,1.8319,2.1857,-0.12,-0.01,1.03
16030,-0.9154,1.8322,2.1862,-0.12,-0.01,1.02
16039,-0.9129,1.8328,2.1866,-0.12,-0.02,1.03
16048,-0.9132,1.8337,2.1852,-0.12,-0.02,1.03
16057,-0.9144,1.8300,2.1863,-0.12,-0.01,1.03
16066,-0.9140,1.8324,2.1864,-0.12,-0.02,1.02
16075,-0.9121,1.8326,2.1858,-0.12,-0.02,1.02
16084,-0.9155,1.8336,2.1851,-0.12,-0.01,1.03
16093,-0.9136,1.8332,2.1868,-0.12,-0.01,1.03
16102,-0.9126,1.8330,2.1855,-0.12,-0.01,1.03
16111,-0.9132,1.8329,2.1869,-0.12,-0.02,1.02
16120,-0.9135,1.8331,2.1855,-0.12,-0.02,1.03
16129,-0.9137,1.8327,2.1830,-0.12,-0.02,1.02
16138,-0.9138,1.8333,2.1856,-0.12,-0.02,1.02
16147,-0.9148,1.8305,2.1850,-0.12,-0.02,1.03
16156,-0.9127,1.8324,2.1860,-0.12,-0.02,1.03
16165,-0.9136,1.8341,2.1864,-0.12,-0.02,1.03
16174,-0.9154,1.8341,2.1880,-0.12,-0.01,1.02
16183,-0.9119,1.8332,2.1848,-0.12,-0.01,1.03
16192,-0.9144,1.8320,2.1864,-0.12,-0.01,1.03
16201,-0.9138,1.8325,2.1854,-0.12,-0.01,1.03
16210,-0.9134,1.8325,2.1851,-0.12,-0.01,1.03
16219,-0.9124,1.8317,2.1851,-0.12,-0.01,1.03
16228,-0.9134,1.8336,2.1857,-0.12,-0.01,1.03
16237,-0.9119,1.8335,2.1853,-0.12,-0.02,1.03
16246,-0.9156,1.8310,2.1862,-0.12,-0.01,1.02
16255,-0.9143,1.8324,2.1860,-0.12,-0.01,1.02
16264,-0.9164,1.8314,2.1874,-0.12,-0.01,1.03
16273,-0.9162,1.8305,2.1853,-0.12,-0.02,1.03
16282,-0.9152,1.8327,2.1853,-0.12,-0.01,1.02
16291,-0.9141,1.8328,2.1855,-0.12,-0.01,1.02
16300,-0.9143,1.8321,2.1843,-0.12,-0.02,1.03
16309,-0.9126,1.8330,2.1869,-0.12,-0.02,1.02
16318,-0.9132,1.8316,2.1841,-0.12,-0.02,1.02
16327,-0.9156,1.8341,2.1859,-0.12,-0.01,1.02
16336,-0.9149,1.8329,2.1856,-0.12,-0.02,1.03
16345,-0.9142,1.8327,2.1852,-0.12,-0.01,1.02
16354,-0.9139,1.8341,2.1853,-0.12,-0.01,1.02
16363,-0.9146,1.8321,2.1875,-0.12,-0.01,1.03
16372,-0.9150,1.8348,2.1870,-0.12,-0.02,1.03
16381,-0.9149,1.8331,2.1850,-0.12,-0.02,1.03
16390,-0.9138,1.8325,2.1862,-0.12,-0.01,1.03
16399,-0.9112,1.8333,2.1857,-0.12,-0.02,1.03
16408,-0.9143,1.8317,2.1860,-0.12,-0.02,1.03
16417,-0.9134,1.8316,2.1842,-0.12,-0.02,1.03
16426,-0.9132,1.8348,2.1841,-0.12,-0.01,1.03
16435,-0.9124,1.8337,2.1855,-0.12,-0.02,1.03
16444,-0.9165,1.8331,2.1867,-0.12,-0.02,1.03
16453,-0.9167,1.8353,2.1868,-0.12,-0.02,1.03
16462,-0.9132,1.8334,2.1849,-0.12,-0.01,1.03
16471,-0.9146,1.8324,2.1860,-0.12,-0.01,1.03
16480,-0.9149,1.8312,2.1857,-0.12,-0.02,1.03
16489,-0.9139,1.8315,2.1852,-0.12,-0.02,1.03
16498,-0.9132,1.8328,2.1826,-0.12,-0.01,1.02
16507,-0.9150,1.8329,2.1852,-0.12,-0.01,1.02
16516,-0.9148,1.8324,2.1870,-0.12,-0.02,1.02
16525,-0.9146,1.8350,2.1842,-0.12,-0.01,1.03
16534,-0.9155,1.8318,2.1859,-0.12,-0.01,1.03
16543,-0.9129,1.8333,2.1867,-0.12,-0.01,1.02
16552,-0.9158,1.8328,2.1845,-0.12,-0.02,1.03
16561,-0.9155,1.8323,2.1853,-0.12,-0.01,1.03
16570,-0.9143,1.8335,2.1834,-0.12,-0.01,1.02
16579,-0.9129,1.8318,2.1861,-0.12,-0.01,1.02
16588,-0.9143,1.8331,2.1861,-0.12,-0.02,1.03
16597,-0.9163,1.8325,2.1866,-0.12,-0.02,1.03
16606,-0.9140,1.8326,2.1850,-0.12,-0.01,1.03
16615,-0.9130,1.8309,2.1876,-0.12,-0.01,1.03
16624,-0.9132,1.8351,2.1886,-0.12,-0.01,1.03
16633,-0.9134,1.8352,2.1855,-0.12,-0.01,1.03
16642,-0.9134,1.8334,2.1862,-0.12,-0.01,1.02
16651,-0.9144,1.8344,2.1852,-0.12,-0.02,1.03
16660,-0.9144,1.8339,2.1858,-0.12,-0.02,1.03
16669,-0.9112,1.8329,2.1868,-0.12,-0.01,1.03
16678,-0.9143,1.8329,2.1845,-0.12,-0.01,1.03
16687,-0.9145,1.8343,2.1851,-0.12,-0.01,1.03
16696,-0.9159,1.8324,2.1862,-0.12,-0.01,1.03
16705,-0.9170,1.8321,2.1870,-0.12,-0.01,1.02
16714,-0.9135,1.8333,2.1847,-0.12,-0.01,1.02
16723,-0.9120,1.8337,2.1851,-0.12,-0.01,1.03
16732,-0.9160,1.8322,2.1854,-0.12,-0.02,1.03
16741,-0.9136,1.8319,2.1842,-0.12,-0.02,1.03
16750,-0.9147,1.8307,2.1861,-0.12,-0.02,1.03
16759,-0.9138,1.8331,2.1860,-0.12,-0.01,1.03
16768,-0.9143,1.8311,2.1870,-0.12,-0.01,1.03
16777,-0.9131,1.8333,2.1850,-0.12,-0.01,1.03
16786,-0.9165,1.8338,2.1868,-0.12,-0.01,1.03
16795,-0.9130,1.8314,2.1865,-0.12,-0.01,1.03
16804,-0.9148,1.8307,2.1852,-0.12,-0.02,1.03
16813,-0.9145,1.8313,2.1867,-0.12,-0.02,1.03
16822,-0.9145,1.8318,2.1866,-0.12,-0.01,1.03
16831,-0.9142,1.8324,2.1872,-0.12,-0.01,1.03
16840,-0.9158,1.8332,2.1844,-0.12,-0.01,1.03
16849,-0.9128,1.8307,2.1855,-0.12,-0.02,1.02
16858,-0.9177,1.8331,2.1868,-0.12,-0.01,1.02
16867,-0.9123,1.8321,2.1847,-0.12,-0.02,1.02
16876,-0.9143,1.8348,2.1847,-0.12,-0.02,1.03
16885,-0.9144,1.8335,2.1841,-0.12,-0.02,1.02
16894,-0.9139,1.8327,2.1856,-0.12,-0.01,1.02
16903,-0.9134,1.8317,2.1864,-0.12,-0.01,1.02
16912,-0.9145,1.8315,2.1838,-0.12,-0.02,1.03
16921,-0.9158,1.8335,2.1835,-0.12,-0.02,1.02
16930,-0.9139,1.8315,2.1851,-0.12,-0.02,1.02
16939,-0.9154,1.8316,2.1869,-0.12,-0.01,1.03
16948,-0.9144,1.8319,2.1856,-0.12,-0.01,1.02
16957,-0.9141,1.8331,2.1851,-0.12,-0.01,1.03
16966,-0.9144,1.8325,2.1835,-0.12,-0.01,1.03
16975,-0.9133,1.8346,2.1861,-0.12,-0.01,1.02
16984,-0.9150,1.8311,2.1857,-0.12,-0.01,1.03
16993,-0.9131,1.8318,2.1841,-0.12,-0.01,1.03
17002,-0.9164,1.8346,2.1860,-0.12,-0.02,1.03
17011,-0.9127,1.8315,2.1847,-0.12,-0.01,1.03
17020,-0.9138,1.8319,2.1852,-0.12,-0.01,1.03
17029,-0.9144,1.8316,2.1894,-0.12,-0.01,1.03
17038,-0.9135,1.8318,2.1836,-0.12,-0.01,1.02
17047,-0.9166,1.8338,2.1855,-0.12,-0.01,1.03
17056,-0.9151,1.8354,2.1859,-0.12,-0.01,1.03
17065,-0.9130,1.8323,2.1858,-0.12,-0.02,1.03
17074,-0.9144,1.8332,2.1851,-0.12,-0.01,1.03
17083,-0.9140,1.8319,2.1860,-0.12,-0.02,1.03
17092,-0.9139,1.8331,2.1850,-0.12,-0.02,1.03
17101,-0.9141,1.8335,2.1866,-0.12,-0.01,1.03
17110,-0.9146,1.8338,2.1840,-0.12,-0.01,1.03
17119,-0.9148,1.8319,2.1861,-0.12,-0.01,1.03
17128,-0.9132,1.8320,2.1855,-0.12,-0.01,1.03
17137,-0.9134,1.8328,2.1852,-0.12,-0.01,1.03
17146,-0.9136,1.8331,2.1833,-0.12,-0.01,1.03
17155,-0.9118,1.8318,2.1848,-0.12,-0.01,1.02
17164,-0.9153,1.8320,2.1858,-0.12,-0.01,1.03
17173,-0.9141,1.8330,2.1882,-0.12,-0.01,1.03
17182,-0.9146,1.8326,2.1858,-0.12,-0.01,1.03
17191,-0.9155,1.8343,2.1851,-0.12,-0.01,1.03
17200,-0.9154,1.8329,2.1846,-0.12,-0.01,1.03
17209,-0.9143,1.8309,2.1862,-0.12,-0.01,1.03
17218,-0.9145,1.8349,2.1866,-0.12,-0.01,1.02
17227,-0.9141,1.8316,2.1842,-0.12,-0.01,1.02
17236,-0.9140,1.8334,2.1859,-0.12,-0.01,1.02
17245,-0.9156,1.8343,2.1850,-0.12,-0.01,1.02
17254,-0.9125,1.8316,2.1857,-0.12,-0.02,1.03
17263,-0.9115,1.8322,2.1860,-0.12,-0.01,1.02
17272,-0.9132,1.8317,2.1852,-0.12,-0.01,1.02
17281,-0.9144,1.8323,2.1865,-0.12,-0.01,1.02
17290,-0.9117,1.8321,2.1881,-0.12,-0.02,1.03
17299,-0.9142,1.8326,2.1865,-0.12,-0.02,1.03
17308,-0.9137,1.8332,2.1851,-0.12,-0.01,1.02
17317,-0.9147,1.8344,2.1861,-0.12,-0.02,1.03
17326,-0.9127,1.8343,2.1864,-0.12,-0.01,1.03
17335,-0.9122,1.8320,2.1864,-0.12,-0.01,1.03
17344,-0.9163,1.8338,2.1865,-0.12,-0.01,1.02
17353,-0.9144,1.8333,2.1868,-0.12,-0.02,1.03
17362,-0.9130,1.8331,2.1867,-0.12,-0.02,1.03
17371,-0.9132,1.8324,2.1855,-0.12,-0.01,1.02
17380,-0.9143,1.8336,2.1863,-0.12,-0.01,1.03
17389,-0.9158,1.8334,2.1849,-0.12,-0.02,1.03
17398,-0.9126,1.8311,2.1870,-0.12,-0.02,1.03
17407,-0.9087,1.8332,2.1849,-0.12,-0.01,1.02
17416,-0.9159,1.8325,2.1838,-0.12,-0.02,1.03
17425,-0.9166,1.8339,2.1881,-0.12,-0.02,1.03
17434,-0.9117,1.8343,2.1859,-0.12,-0.02,1.03
17443,-0.9136,1.8332,2.1840,-0.12,-0.01,1.03
17452,-0.9140,1.8289,2.1865,-0.12,-0.01,1.03
17461,-0.9123,1.8312,2.1843,-0.12,-0.02,1.03
17470,-0.9154,1.8319,2.1839,-0.12,-0.01,1.03
17479,-0.9134,1.8329,2.1848,-0.12,-0.02,1.03
17488,-0.9145,1.8314,2.1845,-0.12,-0.02,1.03
17497,-0.9141,1.8330,2.1853,-0.12,-0.02,1.03
17506,-0.9142,1.8321,2.1852,-0.12,-0.01,1.02
17515,-0.9135,1.8307,2.1848,-0.12,-0.01,1.02
17524,-0.9149,1.8318,2.1861,-0.12,-0.01,1.03
17533,-0.9130,1.8340,2.1884,-0.12,-0.01,1.03
17542,-0.9137,1.8329,2.1860,-0.12,-0.01,1.03
17551,-0.9146,1.8334,2.1852,-0.12,-0.02,1.02
17560,-0.9122,1.8312,2.1857,-0.12,-0.02,1.03
17569,-0.9146,1.8334,2.1894,-0.12,-0.01,1.02
17578,-0.9127,1.8309,2.1848,-0.12,-0.01,1.02
17587,-0.9145,1.8333,2.1846,-0.12,-0.01,1.02
17596,-0.9152,1.8326,2.1856,-0.12,-0.01,1.03
17605,-0.9150,1.8316,2.1857,-0.12,-0.01,1.03
17614,-0.9152,1.8374,2.1859,-0.12,-0.01,1.02
17623,-0.9145,1.8318,2.1863,-0.12,-0.01,1.03
17632,-0.9141,1.8331,2.1866,-0.12,-0.01,1.02
17641,-0.9164,1.8340,2.1851,-0.12,-0.01,1.02
17650,-0.9132,1.8317,2.1846,-0.12,-0.01,1.03
17659,-0.9146,1.8326,2.1852,-0.12,-0.01,1.03
17668,-0.9156,1.8332,2.1869,-0.12,-0.01,1.03
17677,-0.9137,1.8322,2.1859,-0.12,-0.01,1.02
17686,-0.9141,1.8328,2.1842,-0.12,-0.02,1.03
17695,-0.9142,1.8346,2.1849,-0.12,-0.01,1.03
17704,-0.9143,1.8323,2.1862,-0.12,-0.01,1.03
17713,-0.9136,1.8329,2.1858,-0.12,-0.01,1.03
17722,-0.9131,1.8344,2.1859,-0.12,-0.01,1.02
17731,-0.9133,1.8327,2.1850,-0.12,-0.01,1.02
17740,-0.9129,1.8336,2.1858,-0.12,-0.02,1.03
17749,-0.9105,1.8337,2.1872,-0.12,-0.01,1.03
17758,-0.9154,1.8322,2.1870,-0.12,-0.01,1.03
17767,-0.9146,1.8304,2.1855,-0.12,-0.01,1.03
17776,-0.9146,1.8323,2.1863,-0.12,-0.01,1.03
17785,-0.9142,1.8330,2.1833,-0.12,-0.01,1.03
17794,-0.9131,1.8320,2.1858,-0.12,-0.01,1.03
17803,-0.9149,1.8291,2.1851,-0.12,-0.01,1.03
17812,-0.9146,1.8331,2.1844,-0.12,-0.01,1.02
17821,-0.9139,1.8324,2.1851,-0.12,-0.01,1.02
17830,-0.9135,1.8346,2.1856,-0.12,-0.01,1.02
17839,-0.9153,1.8304,2.1865,-0.12,-0.01,1.03
17848,-0.9154,1.8333,2.1853,-0.12,-0.01,1.03
17857,-0.9134,1.8318,2.1847,-0.12,-0.01,1.02
17866,-0.9150,1.8324,2.1851,-0.12,-0.02,1.03
17875,-0.9146,1.8328,2.1877,-0.12,-0.01,1.02
17884,-0.9139,1.8336,2.1850,-0.12,-0.01,1.02
17893,-0.9132,1.8354,2.1862,-0.12,-0.02,1.02
17902,-0.9137,1.8309,2.1859,-0.12,-0.02,1.03
17911,-0.9162,1.8317,2.1844,-0.12,-0.02,1.03
17920,-0.9098,1.8348,2.1857,-0.12,-0.01,1.02
17929,-0.9149,1.8337,2.1855,-0.12,-0.02,1.03
17938,-0.9139,1.8329,2.1860,-0.12,-0.01,1.02
17947,-0.9130,1.8337,2.1860,-0.12,-0.01,1.02
17956,-0.9124,1.8326,2.1885,-0.12,-0.01,1.02
17965,-0.9118,1.8336,2.1869,-0.12,-0.01,1.02
17974,-0.9114,1.8341,2.1848,-0.12,-0.01,1.02
17983,-0.9141,1.8334,2.1853,-0.12,-0.01,1.02
17992,-0.9138,1.8332,2.1815,-0.12,-0.02,1.03
18001,-0.9145,1.8321,2.1841,-0.12,-0.01,1.03
18010,-0.9152,1.8334,2.1879,-0.12,-0.01,1.02
18019,-0.9141,1.8332,2.1866,-0.12,-0.02,1.03
18028,-0.9144,1.8326,2.1846,-0.12,-0.02,1.03
18037,-0.9153,1.8312,2.1862,-0.12,-0.02,1.03
18046,-0.9143,1.8316,2.1848,-0.12,-0.01,1.02
18055,-0.9131,1.8319,2.1859,-0.12,-0.02,1.03
18064,-0.9135,1.8319,2.1843,-0.12,-0.02,1.03
18073,-0.9139,1.8331,2.1868,-0.12,-0.01,1.03
18082,-0.9105,1.8319,2.1870,-0.12,-0.01,1.02
18091,-0.9132,1.8317,2.1844,-0.12,-0.02,1.02
18100,-0.9142,1.8353,2.1862,-0.12,-0.02,1.03
18109,-0.9158,1.8332,2.1849,-0.12,-0.02,1.03
18118,-0.9143,1.8322,2.1871,-0.12,-0.02,1.02
18127,-0.9142,1.8346,2.1836,-0.12,-0.02,1.02
18136,-0.9148,1.8334,2.1848,-0.12,-0.02,1.02
18145,-0.9094,1.8327,2.1852,-0.12,-0.01,1.03
18154,-0.9123,1.8320,2.1851,-0.12,-0.01,1.03
18163,-0.9129,1.8318,2.1844,-0.12,-0.01,1.02
18172,-0.9160,1.8312,2.1875,-0.12,-0.01,1.03
18181,-0.9215,1.8332,2.1859,-0.12,-0.01,1.02
18190,-0.9150,1.8309,2.1877,-0.12,-0.01,1.02
18199,-0.9139,1.8327,2.1849,-0.12,-0.02,1.03
18208,-0.9139,1.8335,2.1846,-0.12,-0.01,1.03
18217,-0.9142,1.8346,2.1856,-0.12,-0.01,1.03
18226,-0.9126,1.8336,2.1854,-0.12,-0.01,1.02
18235,-0.9144,1.8337,2.1854,-0.12,-0.02,1.03
18244,-0.9130,1.8310,2.1848,-0.12,-0.01,1.03
18253,-0.9148,1.8330,2.1851,-0.12,-0.01,1.03
18262,-0.9122,1.8335,2.1867,-0.12,-0.01,1.03
18271,-0.9145,1.8323,2.1873,-0.12,-0.01,1.03
18280,-0.9144,1.8331,2.1843,-0.12,-0.01,1.03
18289,-0.9140,1.8318,2.1879,-0.12,-0.01,1.03
18298,-0.9135,1.8382,2.1864,-0.12,-0.01,1.03
18307,-0.9119,1.8346,2.1856,-0.12,-0.02,1.03
18316,-0.9157,1.8320,2.1844,-0.12,-0.02,1.03
18325,-0.9141,1.8343,2.1861,-0.12,-0.01,1.03
18334,-0.9139,1.8284,2.1867,-0.12,-0.02,1.03
18343,-0.9125,1.8334,2.1852,-0.12,-0.02,1.03
18352,-0.9137,1.8337,2.1844,-0.12,-0.02,1.03
18361,-0.9143,1.8333,2.1875,-0.12,-0.01,1.02
18370,-0.9188,1.8321,2.1868,-0.12,-0.01,1.02
18379,-0.9136,1.8324,2.1831,-0.12,-0.01,1.03
18388,-0.9134,1.8316,2.1864,-0.12,-0.02,1.03
18397,-0.9134,1.8331,2.1881,-0.12,-0.02,1.03
18406,-0.9144,1.8322,2.1867,-0.12,-0.02,1.03
18415,-0.9162,1.8338,2.1898,-0.12,-0.02,1.02
18424,-0.9148,1.8317,2.1862,-0.12,-0.02,1.03
18433,-0.9129,1.8327,2.1845,-0.12,-0.02,1.03
18442,-0.9130,1.8324,2.1844,-0.12,-0.01,1.03
18451,-0.9147,1.8332,2.1868,-0.12,-0.02,1.03
18460,-0.9135,1.8332,2.1880,-0.12,-0.02,1.03
18469,-0.9148,1.8337,2.1831,-0.12,-0.01,1.02
18478,-0.9140,1.8333,2.1852,-0.12,-0.01,1.03
18487,-0.9131,1.8306,2.1864,-0.12,-0.01,1.03
18496,-0.9142,1.8344,2.1865,-0.12,-0.01,1.03
18505,-0.9128,1.8307,2.1861,-0.12,-0.01,1.03
18514,-0.9136,1.8331,2.1837,-0.12,-0.02,1.03
18523,-0.9140,1.8369,2.1840,-0.12,-0.02,1.03
18532,-0.9119,1.8321,2.1856,-0.12,-0.02,1.03
18541,-0.9129,1.8316,2.1855,-0.12,-0.01,1.02
18550,-0.9140,1.8324,2.1872,-0.11,-0.02,1.03
18559,-0.9135,1.8321,2.1866,-0.11,-0.02,1.03
18568,-0.9139,1.8338,2.1867,-0.12,-0.01,1.03
18577,-0.9144,1.8320,2.1873,-0.12,-0.01,1.02
18586,-0.9122,1.8317,2.1858,-0.12,-0.01,1.02
18595,-0.9150,1.8330,2.1844,-0.12,-0.01,1.03
18604,-0.9140,1.8336,2.1850,-0.12,-0.01,1.03
18613,-0.9132,1.8318,2.1853,-0.12,-0.01,1.03
18622,-0.9164,1.8331,2.1844,-0.12,-0.01,1.02
18631,-0.9137,1.8343,2.1854,-0.12,-0.02,1.03
18640,-0.9105,1.8323,2.1849,-0.12,-0.01,1.03
18649,-0.9140,1.8332,2.1849,-0.12,-0.01,1.03
18658,-0.9137,1.8336,2.1876,-0.12,-0.01,1.03
18667,-0.9144,1.8314,2.1866,-0.12,-0.02,1.03
18676,-0.9125,1.8329,2.1881,-0.12,-0.02,1.03
18685,-0.9136,1.8313,2.1844,-0.12,-0.01,1.03
18694,-0.9136,1.8336,2.1872,-0.12,-0.01,1.02
18703,-0.9166,1.8324,2.1846,-0.12,-0.02,1.02
18712,-0.9133,1.8332,2.1871,-0.12,-0.02,1.03
18721,-0.9146,1.8317,2.1851,-0.12,-0.02,1.03
18730,-0.9170,1.8316,2.1856,-0.12,-0.01,1.03
18739,-0.9157,1.8347,2.1852,-0.12,-0.01,1.03
18748,-0.9131,1.8340,2.1840,-0.12,-0.01,1.02
18757,-0.9190,1.8315,2.1854,-0.12,-0.01,1.03
18766,-0.9153,1.8323,2.1843,-0.12,-0.01,1.03
18775,-0.9128,1.8335,2.1855,-0.12,-0.01,1.02
18784,-0.9140,1.8325,2.1865,-0.12,-0.02,1.03
18793,-0.9063,1.8312,2.1883,-0.12,-0.01,1.02
18802,-0.9134,1.8351,2.1842,-0.12,-0.01,1.02
18811,-0.9157,1.8317,2.1863,-0.12,-0.01,1.02
18820,-0.9123,1.8328,2.1843,-0.12,-0.02,1.03
18829,-0.9133,1.8333,2.1862,-0.12,-0.02,1.03
18838,-0.9148,1.8329,2.1858,-0.12,-0.01,1.02
18847,-0.9131,1.8310,2.1856,-0.12,-0.02,1.02
18856,-0.9142,1.8319,2.1852,-0.12,-0.01,1.03
18865,-0.9160,1.8315,2.1886,-0.12,-0.01,1.03
18874,-0.9138,1.8334,2.1865,-0.12,-0.01,1.02
18883,-0.9146,1.8335,2.1870,-0.12,-0.02,1.03
18892,-0.9117,1.8324,2.1865,-0.12,-0.02,1.03
18901,-0.9131,1.8334,2.1860,-0.12,-0.01,1.03
18910,-0.9132,1.8342,2.1855,-0.12,-0.02,1.03
18919,-0.9145,1.8336,2.1864,-0.12,-0.01,1.03
18928,-0.9133,1.8327,2.1855,-0.12,-0.01,1.03
18937,-0.9163,1.8297,2.1858,-0.12,-0.02,1.02
18946,-0.9119,1.8333,2.1850,-0.12,-0.02,1.03
18955,-0.9139,1.8313,2.1865,-0.12,-0.02,1.03
18964,-0.9124,1.8329,2.1847,-0.12,-0.02,1.03
18973,-0.9144,1.8327,2.1852,-0.12,-0.02,1.03
18982,-0.9146,1.8336,2.1864,-0.12,-0.02,1.03
18991,-0.9122,1.8336,2.1856,-0.12,-0.02,1.02
19000,-0.9131,1.8342,2.1861,-0.12,-0.01,1.02
19009,-0.9141,1.8330,2.1863,-0.12,-0.01,1.03
19018,-0.9121,1.8351,2.1854,-0.12,-0.01,1.03
19027,-0.9125,1.8349,2.1852,-0.12,-0.01,1.02
19036,-0.9159,1.8331,2.1857,-0.12,-0.02,1.03
19045,-0.9142,1.8329,2.1856,-0.12,-0.02,1.03
19054,-0.9147,1.8322,2.1860,-0.12,-0.01,1.03
19063,-0.9164,1.8325,2.1863,-0.12,-0.01,1.02
19072,-0.9123,1.8339,2.1844,-0.12,-0.01,1.02
19081,-0.9153,1.8321,2.1843,-0.12,-0.01,1.03
19090,-0.9142,1.8343,2.1867,-0.12,-0.01,1.02
19099,-0.9134,1.8330,2.1815,-0.12,-0.02,1.03
19108,-0.9139,1.8326,2.1873,-0.12,-0.02,1.03
19117,-0.9155,1.8336,2.1860,-0.12,-0.01,1.03
19126,-0.9143,1.8332,2.1860,-0.12,-0.01,1.02
19135,-0.9134,1.8342,2.1854,-0.12,-0.01,1.02
19144,-0.9115,1.8322,2.1872,-0.12,-0.02,1.03
19153,-0.9120,1.8322,2.1855,-0.12,-0.01,1.02
19162,-0.9148,1.8326,2.1845,-0.12,-0.02,1.03
19171,-0.9146,1.8322,2.1851,-0.12,-0.02,1.03
19180,-0.9154,1.8321,2.1864,-0.12,-0.01,1.03
19189,-0.9163,1.8323,2.1881,-0.12,-0.02,1.03
19198,-0.9143,1.8318,2.1856,-0.12,-0.02,1.03
19207,-0.9145,1.8325,2.1868,-0.12,-0.01,1.03
19216,-0.9154,1.8338,2.1856,-0.12,-0.01,1.02
19225,-0.9132,1.8318,2.1869,-0.12,-0.02,1.02
19234,-0.9116,1.8346,2.1839,-0.12,-0.02,1.03
19243,-0.9125,1.8330,2.1850,-0.12,-0.01,1.03
19252,-0.9160,1.8315,2.1856,-0.12,-0.01,1.03
19261,-0.9132,1.8329,2.1860,-0.12,-0.01,1.03
19270,-0.9125,1.8331,2.1850,-0.12,-0.01,1.03
19279,-0.9128,1.8323,2.1865,-0.12,-0.01,1.03
19288,-0.9127,1.8348,2.1856,-0.12,-0.01,1.03
19297,-0.9138,1.8326,2.1884,-0.12,-0.01,1.03
19306,-0.9152,1.8308,2.1870,-0.12,-0.01,1.02
19315,-0.9126,1.8311,2.1875,-0.12,-0.02,1.02
19324,-0.9151,1.8340,2.1846,-0.12,-0.02,1.02
19333,-0.9153,1.8326,2.1889,-0.12,-0.01,1.03
19342,-0.9143,1.8324,2.1846,-0.12,-0.01,1.02
19351,-0.9130,1.8343,2.1850,-0.12,-0.01,1.02
19360,-0.9135,1.8334,2.1831,-0.12,-0.01,1.02
19369,-0.9143,1.8359,2.1869,-0.12,-0.01,1.02
19378,-0.9147,1.8313,2.1844,-0.12,-0.01,1.02
19387,-0.9137,1.8340,2.1845,-0.12,-0.01,1.03
19396,-0.9159,1.8348,2.1868,-0.12,-0.02,1.03
19405,-0.9165,1.8325,2.1864,-0.12,-0.01,1.02
19414,-0.9145,1.8328,2.1866,-0.12,-0.01,1.02
19423,-0.9143,1.8328,2.1860,-0.12,-0.01,1.02
19432,-0.9143,1.8330,2.1835,-0.12,-0.01,1.03
19441,-0.9142,1.8312,2.1858,-0.12,-0.01,1.03
19450,-0.9167,1.8320,2.1857,-0.12,-0.01,1.03
19459,-0.9143,1.8336,2.1858,-0.12,-0.01,1.03
19468,-0.9142,1.8336,2.1861,-0.12,-0.02,1.03
19477,-0.9140,1.8326,2.1861,-0.12,-0.02,1.03
19486,-0.9107,1.8328,2.1870,-0.12,-0.01,1.03
19495,-0.9131,1.8317,2.1828,-0.12,-0.01,1.02
19504,-0.9159,1.8313,2.1872,-0.12,-0.01,1.02
19513,-0.9126,1.8345,2.1841,-0.12,-0.02,1.03
19522,-0.9146,1.8315,2.1855,-0.12,-0.01,1.02
19531,-0.9143,1.8320,2.1862,-0.12,-0.02,1.02
19540,-0.9130,1.8330,2.1862,-0.12,-0.02,1.03
19549,-0.9115,1.8308,2.1856,-0.12,-0.01,1.03
19558,-0.9154,1.8335,2.1864,-0.12,-0.02,1.02
19567,-0.9141,1.8336,2.1864,-0.12,-0.02,1.02
19576,-0.9150,1.8318,2.1865,-0.12,-0.02,1.03
19585,-0.9136,1.8310,2.1862,-0.12,-0.01,1.02
19594,-0.9121,1.8305,2.1852,-0.12,-0.01,1.02
19603,-0.9159,1.8350,2.1846,-0.12,-0.02,1.02
19612,-0.9143,1.8340,2.1858,-0.12,-0.02,1.03
19621,-0.9124,1.8323,2.1843,-0.12,-0.01,1.02
19630,-0.9136,1.8322,2.1880,-0.12,-0.01,1.02
19639,-0.9154,1.8342,2.1867,-0.12,-0.02,1.03
19648,-0.9140,1.8341,2.1852,-0.12,-0.01,1.02
19657,-0.9120,1.8330,2.1853,-0.12,-0.01,1.02
19666,-0.9154,1.8318,2.1860,-0.12,-0.01,1.02
19675,-0.9130,1.8311,2.1858,-0.12,-0.01,1.03
19684,-0.9141,1.8320,2.1852,-0.12,-0.01,1.03
19693,-0.9142,1.8327,2.1850,-0.12,-0.02,1.02
19702,-0.9132,1.8321,2.1841,-0.12,-0.01,1.03
19711,-0.9145,1.8332,2.1850,-0.12,-0.01,1.03
19720,-0.9151,1.8319,2.1863,-0.12,-0.01,1.03
19729,-0.9161,1.8331,2.1858,-0.12,-0.02,1.02
19738,-0.9143,1.8325,2.1871,-0.12,-0.01,1.03
19747,-0.9143,1.8315,2.1886,-0.12,-0.01,1.03
19756,-0.9145,1.8330,2.1849,-0.12,-0.01,1.03
19765,-0.9135,1.8337,2.1852,-0.12,-0.02,1.03
19774,-0.9146,1.8326,2.1845,-0.12,-0.01,1.03
19783,-0.9125,1.8344,2.1869,-0.12,-0.01,1.03
19792,-0.9130,1.8338,2.1867,-0.12,-0.02,1.03
19801,-0.9132,1.8320,2.1862,-0.12,-0.02,1.02
19810,-0.9149,1.8331,2.1845,-0.12,-0.02,1.02
19819,-0.9131,1.8336,2.1859,-0.12,-0.01,1.02
19828,-0.9168,1.8328,2.1875,-0.12,-0.02,1.03
19837,-0.9111,1.8313,2.1848,-0.12,-0.01,1.03
19846,-0.9124,1.8326,2.1864,-0.12,-0.01,1.02
19855,-0.9143,1.8313,2.1849,-0.12,-0.02,1.03
19864,-0.9161,1.8319,2.1864,-0.12,-0.01,1.02
19873,-0.9144,1.8322,2.1859,-0.12,-0.01,1.02
19882,-0.9128,1.8340,2.1858,-0.12,-0.01,1.02
19891,-0.9138,1.8328,2.1860,-0.12,-0.02,1.03
19900,-0.9123,1.8315,2.1850,-0.12,-0.02,1.03
19909,-0.9174,1.8324,2.1858,-0.12,-0.01,1.03
19918,-0.9148,1.8335,2.1881,-0.12,-0.02,1.03
19927,-0.9127,1.8296,2.1842,-0.12,-0.01,1.02
19936,-0.9145,1.8330,2.1843,-0.12,-0.01,1.02
19945,-0.9142,1.8340,2.1853,-0.12,-0.01,1.02
19954,-0.9146,1.8271,2.1851,-0.12,-0.02,1.03
19963,-0.9155,1.8310,2.1852,-0.12,-0.02,1.03
19972,-0.9134,1.8326,2.1847,-0.12,-0.01,1.02
19981,-0.9155,1.8318,2.1853,-0.12,-0.02,1.03
19990,-0.9134,1.8298,2.1846,-0.12,-0.02,1.03
19999,-0.9129,1.8322,2.1850,-0.12,-0.01,1.03
20008,-0.9138,1.8344,2.1851,-0.12,-0.02,1.02
20017,-0.9147,1.8332,2.1841,-0.12,-0.02,1.03
20026,-0.9126,1.8360,2.1874,-0.12,-0.02,1.03
20035,-0.9147,1.8324,2.1859,-0.12,-0.01,1.03
20044,-0.9151,1.8321,2.1859,-0.12,-0.01,1.03
20053,-0.9145,1.8323,2.1847,-0.12,-0.01,1.03
20062,-0.9144,1.8337,2.1841,-0.12,-0.01,1.02
20071,-0.9146,1.8334,2.1860,-0.12,-0.01,1.03
20080,-0.9113,1.8360,2.1842,-0.12,-0.01,1.03
20089,-0.9118,1.8340,2.1858,-0.12,-0.02,1.02
20098,-0.9126,1.8323,2.1862,-0.12,-0.01,1.03
20107,-0.9125,1.8328,2.1865,-0.12,-0.01,1.03
20116,-0.9153,1.8320,2.1844,-0.12,-0.01,1.03
20125,-0.9140,1.8342,2.1868,-0.12,-0.01,1.02
20134,-0.9145,1.8332,2.1862,-0.12,-0.02,1.03
20143,-0.9146,1.8319,2.1870,-0.12,-0.02,1.03
20152,-0.9134,1.8335,2.1845,-0.12,-0.01,1.03
20161,-0.9147,1.8325,2.1863,-0.12,-0.02,1.02
20170,-0.9141,1.8327,2.1855,-0.12,-0.02,1.02
20179,-0.9141,1.8340,2.1847,-0.12,-0.02,1.03
20188,-0.9148,1.8337,2.1858,-0.12,-0.01,1.03
20197,-0.9158,1.8326,2.1857,-0.12,-0.01,1.03
20206,-0.9151,1.8325,2.1844,-0.12,-0.02,1.02
20215,-0.9155,1.8331,2.1840,-0.12,-0.02,1.03
20224,-0.9157,1.8329,2.1861,-0.12,-0.01,1.02
20233,-0.9146,1.8337,2.1854,-0.12,-0.01,1.02
20242,-0.9153,1.8350,2.1867,-0.12,-0.02,1.03
20251,-0.9149,1.8314,2.1854,-0.12,-0.01,1.03
20260,-0.9124,1.8323,2.1855,-0.12,-0.01,1.03
20269,-0.9150,1.8326,2.1849,-0.12,-0.01,1.02
20278,-0.9124,1.8340,2.1858,-0.12,-0.02,1.03
20287,-0.9158,1.8344,2.1864,-0.12,-0.01,1.03
20296,-0.9117,1.8323,2.1879,-0.12,-0.01,1.03
20305,-0.9114,1.8331,2.1859,-0.12,-0.02,1.02
20314,-0.9142,1.8344,2.1867,-0.12,-0.01,1.03
20323,-0.9163,1.8338,2.1842,-0.12,-0.01,1.03
20332,-0.9141,1.8329,2.1857,-0.12,-0.01,1.02
20341,-0.9154,1.8332,2.1841,-0.12,-0.01,1.02
20350,-0.9163,1.8300,2.1856,-0.12,-0.01,1.02
20359,-0.9139,1.8324,2.1853,-0.12,-0.01,1.03
20368,-0.9152,1.8320,2.1863,-0.12,-0.01,1.02
20377,-0.9152,1.8322,2.1849,-0.12,-0.02,1.03
20386,-0.9145,1.8324,2.1846,-0.12,-0.02,1.03
20395,-0.9161,1.8339,2.1863,-0.12,-0.02,1.03
20404,-0.9130,1.8330,2.1845,-0.12,-0.01,1.02
20413,-0.9131,1.8323,2.1853,-0.12,-0.01,1.02
20422,-0.9141,1.8308,2.1871,-0.12,-0.02,1.03
20431,-0.9150,1.8326,2.1862,-0.12,-0.01,1.03
20440,-0.9146,1.8326,2.1863,-0.12,-0.02,1.02
20449,-0.9157,1.8332,2.1853,-0.12,-0.02,1.02
20458,-0.9162,1.8325,2.1857,-0.12,-0.02,1.03
20467,-0.9122,1.8345,2.1846,-0.12,-0.01,1.02
20476,-0.9140,1.8343,2.1860,-0.12,-0.01,1.02
20485,-0.9140,1.8367,2.1855,-0.12,-0.02,1.03
20494,-0.9146,1.8319,2.1847,-0.12,-0.02,1.03
20503,-0.9144,1.8316,2.1854,-0.12,-0.02,1.03
20512,-0.9166,1.8328,2.1877,-0.12,-0.01,1.02
20521,-0.9144,1.8315,2.1870,-0.12,-0.02,1.03
20530,-0.9139,1.8318,2.1850,-0.12,-0.01,1.02
20539,-0.9148,1.8343,2.1866,-0.12,-0.01,1.02
20548,-0.9126,1.8322,2.1854,-0.12,-0.02,1.03
20557,-0.9141,1.8320,2.1866,-0.12,-0.01,1.03
20566,-0.9125,1.8311,2.1855,-0.12,-0.01,1.03
20575,-0.9153,1.8311,2.1839,-0.12,-0.02,1.03
20584,-0.9145,1.8330,2.1852,-0.12,-0.02,1.03
20593,-0.9150,1.8321,2.1837,-0.12,-0.01,1.02
20602,-0.9142,1.8310,2.1856,-0.12,-0.01,1.02
20611,-0.9130,1.8325,2.1877,-0.12,-0.02,1.03
20620,-0.9118,1.8324,2.1883,-0.12,-0.01,1.02
20629,-0.9139,1.8335,2.1840,-0.12,-0.01,1.02
20638,-0.9138,1.8305,2.1849,-0.12,-0.02,1.03
20647,-0.9130,1.8304,2.1825,-0.12,-0.01,1.03
20656,-0.9129,1.8325,2.1863,-0.12,-0.01,1.03
20665,-0.9136,1.8315,2.1856,-0.12,-0.01,1.03
20674,-0.9155,1.8335,2.1854,-0.12,-0.01,1.03
20683,-0.9148,1.8334,2.1848,-0.12,-0.02,1.03
20692,-0.9151,1.8318,2.1844,-0.12,-0.02,1.03
20701,-0.9148,1.8324,2.1833,-0.12,-0.01,1.03
20710,-0.9146,1.8326,2.1861,-0.12,-0.02,1.02
20719,-0.9121,1.8335,2.1873,-0.12,-0.02,1.02
20728,-0.9158,1.8332,2.1842,-0.12,-0.01,1.03
20737,-0.9146,1.8325,2.1859,-0.12,-0.02,1.03
20746,-0.9145,1.8308,2.1861,-0.12,-0.02,1.03
20755,-0.9121,1.8319,2.1850,-0.12,-0.02,1.03
20764,-0.9158,1.8323,2.1857,-0.12,-0.02,1.03
20773,-0.9125,1.8328,2.1864,-0.12,-0.01,1.03
20782,-0.9130,1.8343,2.1864,-0.12,-0.01,1.03
20791,-0.9136,1.8319,2.1850,-0.12,-0.02,1.03
20800,-0.9159,1.8326,2.1838,-0.12,-0.01,1.02
20809,-0.9150,1.8326,2.1855,-0.12,-0.01,1.02
20818,-0.9124,1.8330,2.1867,-0.12,-0.01,1.03
20827,-0.9140,1.8316,2.1847,-0.12,-0.01,1.03
20836,-0.9130,1.8325,2.1874,-0.12,-0.01,1.03
20845,-0.9152,1.8344,2.1852,-0.12,-0.01,1.03
20854,-0.9135,1.8317,2.1846,-0.12,-0.01,1.03
20863,-0.9135,1.8332,2.1847,-0.12,-0.01,1.03
20872,-0.9151,1.8329,2.1854,-0.12,-0.01,1.03
20881,-0.9137,1.8307,2.1862,-0.12,-0.01,1.03
20890,-0.9147,1.8333,2.1878,-0.12,-0.02,1.03
20899,-0.9139,1.8338,2.1856,-0.12,-0.02,1.02
20908,-0.9131,1.8332,2.1858,-0.12,-0.02,1.02
20917,-0.9130,1.8335,2.1846,-0.12,-0.02,1.03
20926,-0.9149,1.8312,2.1863,-0.12,-0.01,1.02
20935,-0.9126,1.8315,2.1860,-0.12,-0.01,1.02
20944,-0.9142,1.8331,2.1875,-0.12,-0.02,1.03
20953,-0.9155,1.8319,2.1862,-0.12,-0.02,1.03
20962,-0.9139,1.8333,2.1858,-0.12,-0.01,1.03
20971,-0.9147,1.8325,2.1857,-0.12,-0.01,1.03
20980,-0.9143,1.8333,2.1852,-0.12,-0.02,1.03
20989,-0.9163,1.8329,2.1848,-0.12,-0.01,1.03
20998,-0.9153,1.8333,2.1865,-0.12,-0.01,1.03
21007,-0.9137,1.8332,2.1842,-0.12,-0.01,1.02
21016,-0.9138,1.8325,2.1865,-0.12,-0.01,1.03
21025,-0.9152,1.8304,2.1864,-0.12,-0.01,1.03
21034,-0.9156,1.8337,2.1842,-0.12,-0.01,1.02
21043,-0.9137,1.8336,2.1868,-0.12,-0.02,1.03
21052,-0.9152,1.8333,2.1857,-0.12,-0.01,1.03
21061,-0.9144,1.8332,2.1843,-0.12,-0.01,1.03
21070,-0.9132,1.8316,2.1843,-0.12,-0.01,1.03
21079,-0.9125,1.8332,2.1849,-0.12,-0.01,1.03
21088,-0.9118,1.8327,2.1845,-0.12,-0.01,1.03
21097,-0.9138,1.8322,2.1870,-0.12,-0.01,1.02
21106,-0.9146,1.8334,2.1873,-0.12,-0.02,1.03
21115,-0.9164,1.8312,2.1857,-0.12,-0.02,1.03
21124,-0.9144,1.8333,2.1865,-0.12,-0.01,1.03
21133,-0.9137,1.8305,2.1860,-0.12,-0.01,1.03
21142,-0.9144,1.8326,2.1840,-0.12,-0.02,1.02
21151,-0.9132,1.8328,2.1849,-0.12,-0.02,1.02
21160,-0.9166,1.8332,2.1846,-0.12,-0.01,1.03
21169,-0.9138,1.8352,2.1869,-0.12,-0.02,1.02
21178,-0.9148,1.8333,2.1863,-0.12,-0.02,1.02
21187,-0.9130,1.8339,2.1868,-0.12,-0.01,1.02
21196,-0.9141,1.8330,2.1862,-0.12,-0.02,1.03
21205,-0.9132,1.8325,2.1849,-0.12,-0.01,1.02
21214,-0.9124,1.8324,2.1868,-0.12,-0.01,1.02
21223,-0.9157,1.8342,2.1847,-0.12,-0.01,1.02
21232,-0.9139,1.8324,2.1842,-0.12,-0.01,1.03
21241,-0.9146,1.8320,2.1871,-0.12,-0.01,1.03
21250,-0.9134,1.8318,2.1854,-0.12,-0.01,1.02
21259,-0.9138,1.8328,2.1868,-0.12,-0.02,1.03
21268,-0.9123,1.8329,2.1870,-0.12,-0.01,1.03
21277,-0.9139,1.8326,2.1860,-0.12,-0.01,1.02
21286,-0.9148,1.8317,2.1850,-0.12,-0.01,1.03
21295,-0.9117,1.8317,2.1865,-0.12,-0.01,1.03
21304,-0.9137,1.8325,2.1846,-0.12,-0.01,1.03
21313,-0.9152,1.8338,2.1854,-0.12,-0.02,1.02
21322,-0.9137,1.8327,2.1851,-0.12,-0.01,1.03
21331,-0.9141,1.8325,2.1851,-0.12,-0.01,1.03
21340,-0.9146,1.8320,2.1859,-0.12,-0.02,1.03
21349,-0.9144,1.8339,2.1850,-0.12,-0.02,1.03
21358,-0.9148,1.8320,2.1837,-0.12,-0.01,1.02
21367,-0.9143,1.8322,2.1859,-0.12,-0.01,1.02
21376,-0.9135,1.8322,2.1849,-0.12,-0.01,1.03
21385,-0.9157,1.8323,2.1835,-0.12,-0.02,1.03
21394,-0.9113,1.8307,2.1863,-0.12,-0.02,1.03
21403,-0.9141,1.8320,2.1862,-0.12,-0.01,1.03
21412,-0.9136,1.8328,2.1850,-0.12,-0.01,1.03
21421,-0.9142,1.8317,2.1851,-0.12,-0.01,1.03
21430,-0.9148,1.8312,2.1863,-0.12,-0.02,1.03
21439,-0.9124,1.8334,2.1863,-0.12,-0.01,1.03
21448,-0.9124,1.8324,2.1865,-0.12,-0.01,1.02
21457,-0.9137,1.8333,2.1860,-0.12,-0.01,1.02
21466,-0.9163,1.8335,2.1870,-0.12,-0.01,1.03
21475,-0.9121,1.8314,2.1870,-0.12,-0.02,1.02
21484,-0.9135,1.8328,2.1866,-0.12,-0.02,1.02
21493,-0.9159,1.8309,2.1865,-0.12,-0.02,1.03
21502,-0.9142,1.8326,2.1861,-0.12,-0.01,1.03
21511,-0.9143,1.8344,2.1835,-0.12,-0.02,1.02
21520,-0.9135,1.8319,2.1853,-0.12,-0.02,1.02
21529,-0.9124,1.8338,2.1860,-0.12,-0.02,1.03
21538,-0.9160,1.8324,2.1860,-0.12,-0.01,1.02
21547,-0.9129,1.8327,2.1875,-0.12,-0.01,1.02
21556,-0.9154,1.8326,2.1857,-0.12,-0.02,1.03
21565,-0.9145,1.8330,2.1849,-0.12,-0.01,1.03
21574,-0.9109,1.8324,2.1834,-0.12,-0.01,1.03
21583,-0.9136,1.8334,2.1854,-0.12,-0.01,1.03
21592,-0.9125,1.8330,2.1870,-0.12,-0.01,1.03
21601,-0.9139,1.8334,2.1868,-0.12,-0.02,1.03
21610,-0.9112,1.8346,2.1879,-0.12,-0.02,1.03
21619,-0.9132,1.8330,2.1870,-0.12,-0.02,1.03
21628,-0.9120,1.8332,2.1864,-0.12,-0.02,1.02
21637,-0.9144,1.8326,2.1870,-0.12,-0.02,1.02
21646,-0.9138,1.8328,2.1858,-0.12,-0.02,1.03
21655,-0.9155,1.8333,2.1860,-0.12,-0.01,1.03
21664,-0.9148,1.8324,2.1851,-0.12,-0.01,1.03
21673,-0.9130,1.8338,2.1855,-0.12,-0.01,1.03
21682,-0.9138,1.8321,2.1860,-0.12,-0.01,1.03
21691,-0.9123,1.8332,2.1867,-0.12,-0.02,1.03
21700,-0.9144,1.8308,2.1876,-0.12,-0.02,1.03
21709,-0.9150,1.8326,2.1880,-0.12,-0.01,1.03
21718,-0.9138,1.8318,2.1857,-0.12,-0.02,1.03
21727,-0.9126,1.8301,2.1882,-0.12,-0.02,1.03
21736,-0.9150,1.8340,2.1849,-0.12,-0.01,1.03
21745,-0.9139,1.8323,2.1868,-0.12,-0.01,1.02
21754,-0.9139,1.8334,2.1871,-0.12,-0.01,1.03
21763,-0.9132,1.8307,2.1867,-0.12,-0.01,1.03
21772,-0.9163,1.8329,2.1844,-0.12,-0.01,1.03
21781,-0.9152,1.8307,2.1860,-0.12,-0.01,1.02
21790,-0.9130,1.8340,2.1858,-0.12,-0.01,1.02
21799,-0.9125,1.8323,2.1857,-0.12,-0.01,1.03
21808,-0.9128,1.8345,2.1858,-0.12,-0.01,1.03
21817,-0.9153,1.8333,2.1872,-0.12,-0.02,1.03
21826,-0.9138,1.8326,2.1854,-0.12,-0.02,1.03
21835,-0.9132,1.8328,2.1843,-0.12,-0.01,1.03
21844,-0.9138,1.8331,2.1859,-0.12,-0.01,1.03
21853,-0.9158,1.8334,2.1872,-0.12,-0.01,1.03
21862,-0.9154,1.8348,2.1857,-0.12,-0.01,1.03
21871,-0.9144,1.8318,2.1856,-0.12,-0.01,1.03
21880,-0.9141,1.8342,2.1846,-0.12,-0.01,1.03
21889,-0.9114,1.8333,2.1860,-0.12,-0.01,1.03
21898,-0.9151,1.8330,2.1852,-0.12,-0.01,1.03
21907,-0.9131,1.8321,2.1847,-0.12,-0.01,1.03
21916,-0.9125,1.8332,2.1852,-0.12,-0.01,1.03
21925,-0.9139,1.8321,2.1859,-0.12,-0.02,1.02
21934,-0.9150,1.8311,2.1855,-0.12,-0.01,1.03
21943,-0.9162,1.8314,2.1857,-0.12,-0.01,1.03
21952,-0.9133,1.8319,2.1851,-0.12,-0.01,1.03
21961,-0.9138,1.8327,2.1845,-0.12,-0.01,1.03
21970,-0.9150,1.8320,2.1870,-0.12,-0.02,1.03
21979,-0.9136,1.8337,2.1865,-0.12,-0.02,1.03
21988,-0.9148,1.8324,2.1849,-0.12,-0.02,1.03
21997,-0.9137,1.8335,2.1875,-0.12,-0.01,1.03
22006,-0.9121,1.8327,2.1857,-0.12,-0.01,1.03
22015,-0.9109,1.8335,2.1860,-0.12,-0.02,1.02
22024,-0.9131,1.8327,2.1858,-0.12,-0.02,1.03
22033,-0.9132,1.8331,2.1847,-0.12,-0.02,1.03
22042,-0.9157,1.8344,2.1870,-0.12,-0.01,1.03
22051,-0.9146,1.8324,2.1874,-0.12,-0.01,1.02
22060,-0.9146,1.8313,2.1850,-0.12,-0.02,1.03
22069,-0.9131,1.8341,2.1842,-0.12,-0.02,1.03
22078,-0.9140,1.8336,2.1861,-0.12,-0.01,1.02
22087,-0.9150,1.8327,2.1851,-0.12,-0.02,1.03
22096,-0.9141,1.8325,2.1871,-0.12,-0.02,1.03
22105,-0.9131,1.8344,2.1863,-0.12,-0.01,1.03
22114,-0.9124,1.8320,2.1874,-0.12,-0.01,1.03
22123,-0.9122,1.8330,2.1858,-0.12,-0.02,1.03
22132,-0.9124,1.8325,2.1843,-0.12,-0.02,1.03
22141,-0.9138,1.8337,2.1882,-0.12,-0.01,1.03
22150,-0.9145,1.8311,2.1861,-0.12,-0.01,1.03
22159,-0.9135,1.8331,2.1857,-0.12,-0.01,1.03
22168,-0.9140,1.8320,2.1887,-0.12,-0.01,1.03
22177,-0.9135,1.8328,2.1830,-0.12,-0.02,1.03
22186,-0.9135,1.8333,2.1860,-0.12,-0.01,1.03
22195,-0.9121,1.8324,2.1857,-0.12,-0.01,1.03
22204,-0.9154,1.8328,2.1858,-0.12,-0.01,1.03
22213,-0.9133,1.8338,2.1854,-0.12,-0.02,1.03
22222,-0.9142,1.8327,2.1852,-0.12,-0.02,1.03
22231,-0.9147,1.8331,2.1839,-0.12,-0.01,1.03
22240,-0.9158,1.8313,2.1853,-0.12,-0.01,1.02
22249,-0.9150,1.8322,2.1853,-0.12,-0.01,1.02
22258,-0.9143,1.8334,2.1841,-0.12,-0.01,1.03
22267,-0.9173,1.8330,2.1858,-0.12,-0.01,1.03
22276,-0.9129,1.8345,2.1852,-0.12,-0.01,1.03
22285,-0.9140,1.8321,2.1864,-0.12,-0.01,1.03
22294,-0.9146,1.8312,2.1854,-0.12,-0.01,1.03
22303,-0.9147,1.8317,2.1867,-0.12,-0.01,1.02
22312,-0.9138,1.8326,2.1849,-0.12,-0.01,1.02
22321,-0.9122,1.8309,2.1863,-0.12,-0.02,1.02
22330,-0.9152,1.8318,2.1841,-0.12,-0.02,1.03
22339,-0.9150,1.8319,2.1869,-0.12,-0.02,1.03
22348,-0.9142,1.8323,2.1852,-0.12,-0.01,1.03
22357,-0.9132,1.8326,2.1863,-0.12,-0.01,1.03
22366,-0.9139,1.8349,2.1867,-0.12,-0.02,1.03
22375,-0.9137,1.8316,2.1861,-0.12,-0.02,1.03
22384,-0.9146,1.8322,2.1848,-0.12,-0.01,1.03
22393,-0.9143,1.8335,2.1865,-0.12,-0.02,1.03
22402,-0.9145,1.8299,2.1856,-0.12,-0.02,1.03
22411,-0.9154,1.8325,2.1837,-0.12,-0.01,1.03
22420,-0.9127,1.8328,2.1863,-0.12,-0.01,1.03
22429,-0.9130,1.8326,2.1841,-0.12,-0.02,1.03
22438,-0.9158,1.8334,2.1866,-0.12,-0.02,1.03
22447,-0.9149,1.8321,2.1867,-0.12,-0.01,1.02
22456,-0.9118,1.8343,2.1859,-0.12,-0.02,1.03
22465,-0.9142,1.8341,2.1854,-0.12,-0.02,1.03
22474,-0.9142,1.8304,2.1829,-0.12,-0.01,1.03
22483,-0.9138,1.8334,2.1868,-0.12,-0.01,1.03
22492,-0.9128,1.8330,2.1851,-0.12,-0.01,1.03
22501,-0.9143,1.8330,2.1876,-0.12,-0.01,1.03
22510,-0.9153,1.8324,2.1869,-0.12,-0.01,1.02
22519,-0.9133,1.8317,2.1850,-0.12,-0.02,1.03
22528,-0.9142,1.8353,2.1858,-0.12,-0.02,1.03
22537,-0.9144,1.8348,2.1854,-0.12,-0.01,1.02
22546,-0.9149,1.8327,2.1860,-0.12,-0.02,1.03
22555,-0.9157,1.8334,2.1861,-0.12,-0.02,1.03
22564,-0.9136,1.8328,2.1855,-0.12,-0.01,1.03
22573,-0.9145,1.8326,2.1874,-0.12,-0.01,1.02
22582,-0.9134,1.8313,2.1848,-0.12,-0.01,1.02
22591,-0.9136,1.8321,2.1856,-0.12,-0.01,1.02
22600,-0.9140,1.8324,2.1856,-0.12,-0.01,1.02
22609,-0.9153,1.8321,2.1856,-0.12,-0.01,1.03
22618,-0.9146,1.8324,2.1862,-0.12,-0.01,1.03
22627,-0.9157,1.8330,2.1862,-0.12,-0.02,1.02
22636,-0.9126,1.8327,2.1833,-0.12,-0.01,1.03
22645,-0.9143,1.8333,2.1843,-0.12,-0.02,1.02
22654,-0.9140,1.8335,2.1841,-0.12,-0.02,1.02
22663,-0.9129,1.8298,2.1863,-0.12,-0.01,1.02
22672,-0.9146,1.8334,2.1851,-0.12,-0.02,1.03
22681,-0.9146,1.8332,2.1866,-0.12,-0.02,1.03
22690,-0.9139,1.8339,2.1845,-0.12,-0.02,1.02
22699,-0.9143,1.8326,2.1847,-0.12,-0.01,1.03
22708,-0.9128,1.8323,2.1857,-0.12,-0.01,1.03
22717,-0.9139,1.8335,2.1867,-0.12,-0.01,1.03
22726,-0.9144,1.8319,2.1847,-0.12,-0.02,1.03
22735,-0.9137,1.8337,2.1853,-0.12,-0.01,1.03
22744,-0.9139,1.8329,2.1853,-0.12,-0.01,1.03
22753,-0.9142,1.8331,2.1857,-0.12,-0.01,1.03
22762,-0.9146,1.8306,2.1847,-0.12,-0.01,1.03
22771,-0.9123,1.8325,2.1878,-0.12,-0.01,1.03
22780,-0.9161,1.8336,2.1875,-0.12,-0.02,1.03
22789,-0.9130,1.8348,2.1868,-0.12,-0.02,1.02
22798,-0.9130,1.8329,2.1855,-0.12,-0.02,1.02
22807,-0.9140,1.8325,2.1853,-0.12,-0.02,1.03
22816,-0.9135,1.8330,2.1848,-0.12,-0.01,1.03
22825,-0.9148,1.8326,2.1864,-0.12,-0.01,1.02
22834,-0.9146,1.8334,2.1857,-0.12,-0.01,1.02
22843,-0.9130,1.8337,2.1850,-0.12,-0.02,1.03
22852,-0.9132,1.8326,2.1855,-0.12,-0.01,1.03
22861,-0.9148,1.8355,2.1861,-0.12,-0.01,1.03
22870,-0.9126,1.8314,2.1846,-0.12,-0.01,1.02
22879,-0.9148,1.8339,2.1852,-0.12,-0.02,1.03
22888,-0.9125,1.8331,2.1857,-0.12,-0.01,1.02
22897,-0.9153,1.8329,2.1861,-0.12,-0.01,1.02
22906,-0.9143,1.8322,2.1851,-0.12,-0.02,1.03
22915,-0.9140,1.8328,2.1843,-0.12,-0.01,1.02
22924,-0.9157,1.8317,2.1850,-0.12,-0.01,1.02
22933,-0.9163,1.8322,2.1863,-0.12,-0.02,1.02
22942,-0.9139,1.8327,2.1861,-0.12,-0.01,1.03
22951,-0.9151,1.8349,2.1855,-0.12,-0.02,1.02
22960,-0.9152,1.8324,2.1869,-0.12,-0.02,1.02
22969,-0.9120,1.8331,2.1870,-0.12,-0.02,1.03
22978,-0.9133,1.8320,2.1855,-0.12,-0.01,1.02
22987,-0.9147,1.8309,2.1856,-0.12,-0.01,1.02
22996,-0.9159,1.8326,2.1850,-0.12,-0.01,1.03
23005,-0.9122,1.8334,2.1849,-0.12,-0.01,1.03
23014,-0.9143,1.8337,2.1846,-0.12,-0.01,1.03
23023,-0.9137,1.8319,2.1866,-0.12,-0.01,1.03
23032,-0.9147,1.8340,2.1839,-0.12,-0.02,1.03
23041,-0.9144,1.8331,2.1856,-0.12,-0.01,1.02
23050,-0.9144,1.8339,2.1877,-0.12,-0.01,1.02
23059,-0.9141,1.8344,2.1862,-0.12,-0.01,1.03
23068,-0.9133,1.8318,2.1847,-0.12,-0.01,1.03
23077,-0.9119,1.8326,2.1850,-0.12,-0.01,1.03
23086,-0.9132,1.8323,2.1859,-0.12,-0.01,1.02
23095,-0.9138,1.8324,2.1868,-0.12,-0.02,1.03
23104,-0.9152,1.8326,2.1860,-0.12,-0.01,1.03
23113,-0.9131,1.8344,2.1862,-0.12,-0.01,1.02
23122,-0.9148,1.8343,2.1862,-0.12,-0.02,1.02
23131,-0.9142,1.8328,2.1862,-0.12,-0.01,1.03
23140,-0.9141,1.8327,2.1882,-0.12,-0.01,1.03
23149,-0.9142,1.8345,2.1857,-0.12,-0.01,1.02
23158,-0.9150,1.8321,2.1858,-0.12,-0.02,1.03
23167,-0.9121,1.8349,2.1846,-0.12,-0.02,1.03
23176,-0.9158,1.8346,2.1851,-0.12,-0.01,1.03
23185,-0.9134,1.8331,2.1839,-0.12,-0.01,1.02
23194,-0.9137,1.8334,2.1869,-0.12,-0.02,1.03
23203,-0.9170,1.8325,2.1867,-0.12,-0.02,1.03
23212,-0.9123,1.8330,2.1874,-0.12,-0.01,1.02
23221,-0.9142,1.8329,2.1859,-0.12,-0.01,1.03
23230,-0.9140,1.8339,2.1855,-0.12,-0.01,1.03
23239,-0.9143,1.8331,2.1863,-0.12,-0.01,1.03
23248,-0.9143,1.8327,2.1857,-0.12,-0.02,1.03
23257,-0.9154,1.8323,2.1861,-0.12,-0.01,1.03
23266,-0.9116,1.8314,2.1843,-0.12,-0.01,1.03
23275,-0.9132,1.8333,2.1858,-0.12,-0.01,1.03
23284,-0.9152,1.8321,2.1846,-0.12,-0.01,1.03
23293,-0.9129,1.8326,2.1852,-0.12,-0.01,1.03
23302,-0.9145,1.8329,2.1872,-0.12,-0.01,1.03
23311,-0.9151,1.8340,2.1861,-0.12,-0.02,1.03
23320,-0.9132,1.8311,2.1862,-0.12,-0.01,1.03
23329,-0.9130,1.8343,2.1850,-0.12,-0.01,1.02
23338,-0.9150,1.8322,2.1847,-0.12,-0.02,1.03
23347,-0.9144,1.8343,2.1857,-0.12,-0.01,1.03
23356,-0.9157,1.8323,2.1873,-0.12,-0.01,1.03
23365,-0.9131,1.8326,2.1846,-0.12,-0.01,1.02
23374,-0.9138,1.8330,2.1854,-0.12,-0.02,1.03
23383,-0.9155,1.8337,2.1860,-0.12,-0.02,1.03
23392,-0.9142,1.8342,2.1867,-0.12,-0.01,1.03
23401,-0.9142,1.8329,2.1859,-0.12,-0.02,1.03
23410,-0.9147,1.8325,2.1865,-0.12,-0.02,1.03
23419,-0.9147,1.8333,2.1863,-0.12,-0.02,1.03
23428,-0.9136,1.8326,2.1868,-0.12,-0.01,1.03
23437,-0.9134,1.8323,2.1852,-0.12,-0.01,1.02
23446,-0.9151,1.8315,2.1851,-0.12,-0.01,1.02
23455,-0.9123,1.8334,2.1845,-0.12,-0.02,1.03
23464,-0.9136,1.8343,2.1844,-0.12,-0.01,1.02
23473,-0.9132,1.8332,2.1839,-0.12,-0.01,1.02
23482,-0.9141,1.8321,2.1867,-0.12,-0.01,1.03
23491,-0.9116,1.8320,2.1848,-0.12,-0.01,1.03
23500,-0.9135,1.8336,2.1834,-0.12,-0.02,1.03
23509,-0.9144,1.8332,2.1860,-0.12,-0.02,1.03
23518,-0.9116,1.8343,2.1845,-0.12,-0.01,1.03
23527,-0.9139,1.8340,2.1871,-0.12,-0.01,1.03
23536,-0.9118,1.8330,2.1846,-0.12,-0.01,1.03
23545,-0.9171,1.8343,2.1856,-0.12,-0.02,1.03
23554,-0.9133,1.8311,2.1855,-0.12,-0.01,1.03
23563,-0.9144,1.8323,2.1849,-0.12,-0.02,1.02
23572,-0.9134,1.8339,2.1862,-0.12,-0.02,1.02
23581,-0.9156,1.8321,2.1868,-0.12,-0.01,1.03
23590,-0.9122,1.8335,2.1846,-0.12,-0.01,1.03
23599,-0.9138,1.8325,2.1866,-0.12,-0.01,1.03
23608,-0.9149,1.8308,2.1860,-0.12,-0.01,1.03
23617,-0.9136,1.8323,2.1878,-0.12,-0.01,1.02
23626,-0.9137,1.8330,2.1873,-0.12,-0.02,1.02
23635,-0.9143,1.8317,2.1861,-0.12,-0.02,1.03
23644,-0.9138,1.8326,2.1858,-0.12,-0.02,1.03
23653,-0.9146,1.8330,2.1865,-0.12,-0.01,1.03
23662,-0.9153,1.8335,2.1848,-0.12,-0.01,1.03
23671,-0.9153,1.8333,2.1836,-0.12,-0.02,1.03
23680,-0.9122,1.8336,2.1858,-0.12,-0.01,1.02
23689,-0.9141,1.8322,2.1847,-0.12,-0.01,1.02
23698,-0.9152,1.8326,2.1847,-0.12,-0.01,1.03
23707,-0.9142,1.8323,2.1842,-0.12,-0.01,1.03
23716,-0.9157,1.8314,2.1858,-0.12,-0.01,1.03
23725,-0.9128,1.8322,2.1856,-0.12,-0.01,1.03
23734,-0.9157,1.8324,2.1870,-0.12,-0.01,1.03
23743,-0.9127,1.8337,2.1860,-0.12,-0.02,1.03
23752,-0.9144,1.8327,2.1869,-0.12,-0.02,1.03
23761,-0.9144,1.8314,2.1863,-0.12,-0.02,1.03
23770,-0.9156,1.8335,2.1850,-0.12,-0.01,1.03
23779,-0.9139,1.8324,2.1846,-0.12,-0.01,1.03
23788,-0.9142,1.8323,2.1858,-0.12,-0.02,1.03
23797,-0.9140,1.8322,2.1857,-0.12,-0.01,1.03
23806,-0.9162,1.8348,2.1866,-0.12,-0.01,1.03
23815,-0.9134,1.8313,2.1857,-0.12,-0.01,1.03
23824,-0.9140,1.8342,2.1872,-0.12,-0.01,1.02
23833,-0.9148,1.8325,2.1838,-0.12,-0.01,1.03
23842,-0.9143,1.8330,2.1843,-0.12,-0.01,1.03
23851,-0.9145,1.8339,2.1857,-0.12,-0.01,1.03
23860,-0.9141,1.8335,2.1857,-0.12,-0.01,1.02
23869,-0.9146,1.8344,2.1860,-0.12,-0.02,1.03
23878,-0.9141,1.8331,2.1849,-0.12,-0.02,1.03
23887,-0.9147,1.8342,2.1852,-0.12,-0.01,1.03
23896,-0.9169,1.8326,2.1878,-0.12,-0.01,1.03
23905,-0.9141,1.8325,2.1872,-0.12,-0.01,1.03
23914,-0.9133,1.8331,2.1858,-0.12,-0.01,1.03
23923,-0.9132,1.8342,2.1855,-0.12,-0.02,1.02
23932,-0.9147,1.8334,2.1860,-0.12,-0.02,1.02
23941,-0.9134,1.8332,2.1866,-0.12,-0.02,1.02
23950,-0.9150,1.8337,2.1855,-0.12,-0.02,1.03
23959,-0.9135,1.8339,2.1861,-0.12,-0.02,1.02
23968,-0.9137,1.8317,2.1850,-0.12,-0.02,1.02
23977,-0.9155,1.8331,2.1868,-0.12,-0.01,1.03
23986,-0.9125,1.8327,2.1846,-0.12,-0.02,1.03
23995,-0.9133,1.8303,2.1868,-0.12,-0.02,1.03
24004,-0.9146,1.8321,2.1857,-0.12,-0.01,1.03
24013,-0.9152,1.8356,2.1870,-0.12,-0.01,1.03
24022,-0.9163,1.8321,2.1872,-0.12,-0.01,1.03
24031,-0.9144,1.8326,2.1862,-0.12,-0.01,1.03
24040,-0.9132,1.8327,2.1875,-0.12,-0.02,1.02
24049,-0.9147,1.8326,2.1843,-0.12,-0.01,1.03
24058,-0.9161,1.8339,2.1851,-0.12,-0.01,1.03
24067,-0.9143,1.8320,2.1862,-0.12,-0.02,1.03
24076,-0.9130,1.8338,2.1832,-0.12,-0.02,1.03
24085,-0.9147,1.8328,2.1846,-0.12,-0.02,1.03
24094,-0.9132,1.8331,2.1862,-0.12,-0.01,1.03
24103,-0.9153,1.8329,2.1859,-0.12,-0.01,1.02
24112,-0.9144,1.8327,2.1861,-0.12,-0.01,1.03
24121,-0.9144,1.8317,2.1867,-0.12,-0.01,1.03
24130,-0.9148,1.8312,2.1845,-0.12,-0.01,1.03
24139,-0.9154,1.8327,2.1856,-0.12,-0.01,1.03
24148,-0.9137,1.8326,2.1850,-0.12,-0.01,1.03
24157,-0.9137,1.8338,2.1852,-0.12,-0.01,1.03
24166,-0.9146,1.8322,2.1850,-0.12,-0.01,1.02
24175,-0.9146,1.8331,2.1840,-0.12,-0.01,1.03
24184,-0.9156,1.8324,2.1863,-0.12,-0.01,1.03
24193,-0.9142,1.8317,2.1873,-0.12,-0.02,1.03
24202,-0.9118,1.8325,2.1876,-0.12,-0.01,1.03
24211,-0.9143,1.8310,2.1838,-0.12,-0.01,1.03
24220,-0.9159,1.8320,2.1868,-0.12,-0.01,1.03
24229,-0.9161,1.8321,2.1871,-0.12,-0.02,1.02
24238,-0.9140,1.8327,2.1851,-0.12,-0.01,1.02
24247,-0.9136,1.8317,2.1862,-0.12,-0.01,1.03
24256,-0.9126,1.8327,2.1856,-0.12,-0.01,1.03
24265,-0.9146,1.8318,2.1862,-0.12,-0.02,1.03
24274,-0.9139,1.8331,2.1831,-0.12,-0.02,1.03
24283,-0.9143,1.8322,2.1856,-0.12,-0.02,1.03
24292,-0.9145,1.8315,2.1852,-0.12,-0.01,1.02
24301,-0.9122,1.8323,2.1864,-0.12,-0.01,1.02
24310,-0.9149,1.8334,2.1867,-0.12,-0.02,1.03
24319,-0.9072,1.8323,2.1850,-0.12,-0.02,1.03
24328,-0.9145,1.8324,2.1858,-0.12,-0.02,1.03
24337,-0.9139,1.8321,2.1856,-0.12,-0.02,1.03
24346,-0.9154,1.8337,2.1842,-0.12,-0.01,1.03
24355,-0.9152,1.8314,2.1853,-0.12,-0.01,1.03
24364,-0.9158,1.8336,2.1873,-0.12,-0.01,1.03
24373,-0.9170,1.8321,2.1855,-0.12,-0.01,1.03
24382,-0.9127,1.8319,2.1847,-0.12,-0.01,1.03
24391,-0.9214,1.8310,2.1862,-0.12,-0.01,1.03
24400,-0.9147,1.8326,2.1856,-0.12,-0.02,1.03
24409,-0.9143,1.8322,2.1837,-0.12,-0.02,1.03
24418,-0.9149,1.8346,2.1862,-0.12,-0.01,1.02
24427,-0.9140,1.8313,2.1847,-0.12,-0.01,1.02
24436,-0.9145,1.8339,2.1856,-0.12,-0.02,1.02
24445,-0.9140,1.8334,2.1854,-0.12,-0.01,1.03
24454,-0.9150,1.8317,2.1867,-0.12,-0.01,1.03
24463,-0.9130,1.8329,2.1859,-0.12,-0.01,1.03
24472,-0.9133,1.8377,2.1855,-0.12,-0.01,1.02
24481,-0.9146,1.8314,2.1856,-0.12,-0.01,1.03
24490,-0.9154,1.8336,2.1870,-0.12,-0.01,1.03
24499,-0.9157,1.8314,2.1860,-0.12,-0.01,1.02
24508,-0.9143,1.8280,2.1853,-0.12,-0.02,1.03
24517,-0.9131,1.8341,2.1852,-0.12,-0.02,1.03
24526,-0.9144,1.8323,2.1840,-0.12,-0.01,1.03
24535,-0.9144,1.8329,2.1863,-0.12,-0.01,1.02
24544,-0.9164,1.8270,2.1877,-0.12,-0.01,1.02
24553,-0.9136,1.8328,2.1858,-0.12,-0.01,1.03
24562,-0.9158,1.8326,2.1868,-0.12,-0.01,1.02
24571,-0.9152,1.8327,2.1878,-0.12,-0.02,1.03
24580,-0.9144,1.8324,2.1857,-0.12,-0.02,1.03
24589,-0.9145,1.8337,2.1840,-0.12,-0.01,1.03
24598,-0.9118,1.8329,2.1834,-0.12,-0.01,1.02
24607,-0.9156,1.8333,2.1855,-0.12,-0.01,1.02
24616,-0.9143,1.8330,2.1850,-0.12,-0.01,1.03
24625,-0.9149,1.8322,2.1900,-0.12,-0.01,1.02
24634,-0.9127,1.8312,2.1863,-0.12,-0.02,1.03
24643,-0.9138,1.8329,2.1864,-0.12,-0.02,1.03
24652,-0.9148,1.8304,2.1847,-0.12,-0.01,1.03
24661,-0.9145,1.8354,2.1838,-0.12,-0.01,1.02
24670,-0.9153,1.8315,2.1883,-0.12,-0.01,1.02
24679,-0.9138,1.8335,2.1857,-0.12,-0.02,1.03
24688,-0.9145,1.8340,2.1879,-0.12,-0.01,1.03
24697,-0.9141,1.8306,2.1846,-0.12,-0.01,1.03
24706,-0.9154,1.8343,2.1852,-0.12,-0.01,1.03
24715,-0.9115,1.8312,2.1879,-0.12,-0.02,1.03
24724,-0.9143,1.8350,2.1863,-0.12,-0.02,1.03
24733,-0.9125,1.8330,2.1855,-0.12,-0.02,1.03
24742,-0.9148,1.8344,2.1865,-0.12,-0.01,1.03
24751,-0.9135,1.8326,2.1857,-0.12,-0.02,1.03
24760,-0.9166,1.8332,2.1852,-0.12,-0.02,1.03
24769,-0.9129,1.8326,2.1861,-0.12,-0.01,1.03
24778,-0.9181,1.8318,2.1861,-0.12,-0.01,1.03
24787,-0.9097,1.8344,2.1844,-0.12,-0.01,1.03
24796,-0.9140,1.8350,2.1869,-0.12,-0.01,1.03
24805,-0.9142,1.8316,2.1856,-0.12,-0.01,1.02
24814,-0.9154,1.8343,2.1850,-0.12,-0.01,1.03
24823,-0.9128,1.8341,2.1852,-0.12,-0.01,1.03
24832,-0.9127,1.8320,2.1849,-0.12,-0.01,1.03
24841,-0.9155,1.8321,2.1842,-0.12,-0.02,1.03
24850,-0.9140,1.8342,2.1869,-0.12,-0.02,1.03
24859,-0.9129,1.8330,2.1854,-0.12,-0.02,1.02
24868,-0.9163,1.8332,2.1851,-0.12,-0.02,1.02
24877,-0.9135,1.8334,2.1857,-0.12,-0.02,1.03
24886,-0.9177,1.8321,2.1858,-0.12,-0.02,1.03
24895,-0.9128,1.8345,2.1851,-0.12,-0.01,1.03
24904,-0.9138,1.8330,2.1874,-0.12,-0.01,1.03
24913,-0.9147,1.8331,2.1841,-0.12,-0.01,1.03
24922,-0.9134,1.8316,2.1853,-0.12,-0.02,1.03
24931,-0.9128,1.8339,2.1859,-0.12,-0.01,1.02
24940,-0.9131,1.8319,2.1848,-0.12,-0.02,1.03
24949,-0.9130,1.8321,2.1856,-0.12,-0.02,1.03
24958,-0.9140,1.8314,2.1852,-0.12,-0.01,1.03
24967,-0.9140,1.8331,2.1859,-0.12,-0.02,1.03
24976,-0.9140,1.8340,2.1862,-0.12,-0.02,1.03
24985,-0.9147,1.8330,2.1859,-0.12,-0.01,1.03
24994,-0.9146,1.8333,2.1859,-0.12,-0.02,1.02
25003,-0.9140,1.8307,2.1869,-0.12,-0.02,1.02
25012,-0.9136,1.8281,2.1854,-0.12,-0.01,1.03
25021,-0.9132,1.8323,2.1858,-0.12,-0.02,1.03
25030,-0.9155,1.8340,2.1847,-0.12,-0.01,1.03
25039,-0.9129,1.8315,2.1875,-0.12,-0.01,1.03
25048,-0.9120,1.8328,2.1851,-0.12,-0.01,1.03
25057,-0.9161,1.8338,2.1865,-0.12,-0.01,1.03
25066,-0.9135,1.8320,2.1862,-0.12,-0.01,1.03
25075,-0.9144,1.8345,2.1851,-0.12,-0.01,1.03
25084,-0.9131,1.8322,2.1876,-0.12,-0.01,1.03
25093,-0.9137,1.8336,2.1838,-0.12,-0.02,1.03
25102,-0.9144,1.8314,2.1855,-0.12,-0.02,1.03
25111,-0.9146,1.8315,2.1868,-0.12,-0.01,1.03
25120,-0.9146,1.8341,2.1849,-0.12,-0.01,1.02
25129,-0.9114,1.8326,2.1870,-0.12,-0.01,1.02
25138,-0.9139,1.8340,2.1835,-0.12,-0.02,1.03
25147,-0.9154,1.8330,2.1861,-0.12,-0.01,1.02
25156,-0.9161,1.8342,2.1840,-0.12,-0.02,1.02
25165,-0.9158,1.8352,2.1865,-0.12,-0.02,1.03
25174,-0.9132,1.8346,2.1865,-0.12,-0.02,1.03
25183,-0.9139,1.8328,2.1854,-0.12,-0.01,1.03
25192,-0.9154,1.8303,2.1848,-0.12,-0.01,1.03
25201,-0.9131,1.8328,2.1860,-0.12,-0.01,1.03
25210,-0.9142,1.8325,2.1848,-0.12,-0.01,1.02
25219,-0.9150,1.8333,2.1879,-0.12,-0.01,1.02
25228,-0.9161,1.8342,2.1868,-0.12,-0.01,1.02
25237,-0.9118,1.8337,2.1864,-0.12,-0.01,1.03
25246,-0.9144,1.8334,2.1843,-0.12,-0.02,1.03
25255,-0.9122,1.8309,2.1853,-0.12,-0.02,1.03
25264,-0.9143,1.8344,2.1858,-0.12,-0.02,1.02
25273,-0.9129,1.8336,2.1862,-0.12,-0.02,1.03
25282,-0.9135,1.8337,2.1857,-0.12,-0.02,1.03
25291,-0.9170,1.8345,2.1861,-0.12,-0.02,1.03
25300,-0.9147,1.8326,2.1863,-0.12,-0.01,1.02
25309,-0.9130,1.8327,2.1849,-0.12,-0.01,1.02
25318,-0.9130,1.8322,2.1853,-0.12,-0.02,1.03
25327,-0.9142,1.8326,2.1852,-0.12,-0.02,1.03
25336,-0.9136,1.8318,2.1857,-0.12,-0.02,1.02
25345,-0.9141,1.8338,2.1858,-0.12,-0.02,1.02
25354,-0.9142,1.8326,2.1868,-0.12,-0.02,1.03
25363,-0.9151,1.8324,2.1840,-0.12,-0.01,1.03
25372,-0.9150,1.8321,2.1866,-0.12,-0.01,1.03
25381,-0.9130,1.8328,2.1860,-0.12,-0.01,1.02
25390,-0.9145,1.8324,2.1858,-0.12,-0.02,1.03
25399,-0.9147,1.8343,2.1858,-0.12,-0.01,1.02
25408,-0.9147,1.8314,2.1875,-0.12,-0.01,1.02
25417,-0.9157,1.8354,2.1865,-0.12,-0.01,1.02
25426,-0.9131,1.8322,2.1864,-0.12,-0.01,1.03
25435,-0.9127,1.8318,2.1849,-0.12,-0.01,1.03
25444,-0.9183,1.8305,2.1855,-0.12,-0.01,1.02
25453,-0.9140,1.8335,2.1865,-0.12,-0.02,1.03
25462,-0.9140,1.8324,2.1853,-0.12,-0.02,1.03
25471,-0.9112,1.8320,2.1856,-0.12,-0.02,1.02
25480,-0.9143,1.8320,2.1860,-0.12,-0.01,1.02
25489,-0.9133,1.8319,2.1860,-0.12,-0.02,1.03
25498,-0.9133,1.8306,2.1859,-0.12,-0.02,1.03
25507,-0.9167,1.8329,2.1846,-0.12,-0.02,1.03
25516,-0.9146,1.8316,2.1819,-0.12,-0.01,1.03
25525,-0.9153,1.8320,2.1853,-0.12,-0.01,1.03
25534,-0.9128,1.8336,2.1853,-0.12,-0.01,1.03
25543,-0.9139,1.8314,2.1873,-0.12,-0.01,1.03
25552,-0.9128,1.8337,2.1856,-0.12,-0.02,1.03
25561,-0.9142,1.8334,2.1858,-0.12,-0.02,1.03
25570,-0.9164,1.8333,2.1855,-0.12,-0.01,1.03
25579,-0.9142,1.8321,2.1871,-0.12,-0.01,1.02
25588,-0.9135,1.8347,2.1872,-0.12,-0.01,1.02
25597,-0.9125,1.8304,2.1840,-0.12,-0.02,1.03
25606,-0.9155,1.8331,2.1854,-0.12,-0.01,1.02
25615,-0.9138,1.8314,2.1845,-0.12,-0.01,1.02
25624,-0.9143,1.8313,2.1843,-0.12,-0.02,1.02
25633,-0.9150,1.8328,2.1856,-0.12,-0.02,1.03
25642,-0.9160,1.8310,2.1849,-0.12,-0.02,1.02
25651,-0.9115,1.8335,2.1845,-0.12,-0.02,1.02
25660,-0.9126,1.8339,2.1864,-0.12,-0.01,1.03
25669,-0.9140,1.8332,2.1860,-0.12,-0.02,1.03
25678,-0.9146,1.8310,2.1840,-0.12,-0.02,1.03
25687,-0.9131,1.8317,2.1865,-0.12,-0.01,1.02
25696,-0.9133,1.8321,2.1858,-0.12,-0.01,1.03
25705,-0.9182,1.8337,2.1843,-0.12,-0.01,1.02
25714,-0.9105,1.8333,2.1862,-0.12,-0.01,1.02
25723,-0.9146,1.8339,2.1846,-0.12,-0.02,1.03
25732,-0.9159,1.8323,2.1853,-0.12,-0.01,1.02
25741,-0.9117,1.8326,2.1859,-0.12,-0.01,1.02
25750,-0.9142,1.8313,2.1856,-0.12,-0.01,1.03
25759,-0.9122,1.8314,2.1850,-0.12,-0.02,1.03
25768,-0.9125,1.8336,2.1855,-0.12,-0.02,1.03
25777,-0.9162,1.8303,2.1858,-0.12,-0.02,1.03
25786,-0.9151,1.8307,2.1851,-0.12,-0.01,1.03
25795,-0.9117,1.8342,2.1866,-0.12,-0.01,1.02
25804,-0.9154,1.8332,2.1884,-0.12,-0.01,1.02
25813,-0.9139,1.8324,2.1850,-0.12,-0.01,1.03
25822,-0.9123,1.8337,2.1912,-0.12,-0.01,1.03
25831,-0.9153,1.8316,2.1871,-0.12,-0.01,1.03
25840,-0.9119,1.8328,2.1829,-0.12,-0.01,1.02
25849,-0.9151,1.8345,2.1838,-0.12,-0.02,1.03
25858,-0.9130,1.8287,2.1858,-0.12,-0.01,1.02
25867,-0.9147,1.8310,2.1860,-0.12,-0.01,1.02
25876,-0.9137,1.8342,2.1852,-0.12,-0.02,1.03
25885,-0.9141,1.8325,2.1853,-0.12,-0.01,1.02
25894,-0.9141,1.8335,2.1854,-0.12,-0.01,1.02
25903,-0.9123,1.8341,2.1861,-0.12,-0.02,1.03
25912,-0.9142,1.8313,2.1857,-0.12,-0.01,1.02
25921,-0.9128,1.8338,2.1861,-0.12,-0.01,1.02
25930,-0.9125,1.8333,2.1853,-0.12,-0.01,1.03
25939,-0.9153,1.8321,2.1838,-0.12,-0.02,1.02
25948,-0.9156,1.8325,2.1858,-0.12,-0.01,1.03
25957,-0.9146,1.8320,2.1856,-0.12,-0.01,1.03
25966,-0.9155,1.8322,2.1844,-0.12,-0.01,1.02
25975,-0.9138,1.8328,2.1838,-0.12,-0.02,1.03
25984,-0.9130,1.8323,2.1871,-0.12,-0.02,1.03
25993,-0.9137,1.8333,2.1862,-0.12,-0.01,1.03
26002,-0.9144,1.8325,2.1878,-0.12,-0.02,1.03
26011,-0.9137,1.8352,2.1873,-0.12,-0.01,1.03
26020,-0.9181,1.8309,2.1886,-0.12,-0.01,1.03
26029,-0.9142,1.8255,2.1847,-0.12,-0.01,1.02
26038,-0.9142,1.8335,2.1859,-0.12,-0.02,1.03
26047,-0.9151,1.8308,2.1874,-0.12,-0.02,1.03
26056,-0.9145,1.8332,2.1856,-0.12,-0.02,1.02
26065,-0.9147,1.8314,2.1889,-0.12,-0.01,1.03
26074,-0.9149,1.8321,2.1868,-0.12,-0.02,1.03
26083,-0.9146,1.8339,2.1851,-0.12,-0.02,1.02
26092,-0.9120,1.8321,2.1874,-0.12,-0.02,1.03
26101,-0.9130,1.8316,2.1860,-0.12,-0.01,1.03
26110,-0.9128,1.8340,2.1851,-0.12,-0.01,1.03
26119,-0.9134,1.8350,2.1837,-0.12,-0.01,1.02
26128,-0.9148,1.8323,2.1854,-0.12,-0.02,1.03
26137,-0.9103,1.8324,2.1855,-0.12,-0.02,1.03
26146,-0.9128,1.8333,2.1871,-0.12,-0.01,1.02
26155,-0.9158,1.8339,2.1877,-0.12,-0.02,1.03
26164,-0.9137,1.8326,2.1865,-0.12,-0.01,1.02
26173,-0.9136,1.8315,2.1869,-0.12,-0.01,1.02
26182,-0.9150,1.8333,2.1867,-0.12,-0.01,1.02
26191,-0.9144,1.8327,2.1849,-0.12,-0.02,1.03
26200,-0.9137,1.8304,2.1860,-0.12,-0.02,1.03
26209,-0.9138,1.8338,2.1859,-0.12,-0.01,1.02
26218,-0.9146,1.8312,2.1861,-0.12,-0.02,1.03
26227,-0.9137,1.8310,2.1854,-0.12,-0.02,1.03
26236,-0.9129,1.8313,2.1882,-0.12,-0.01,1.03
26245,-0.9158,1.8348,2.1859,-0.12,-0.01,1.02
26254,-0.9119,1.8324,2.1855,-0.12,-0.02,1.03
26263,-0.9126,1.8325,2.1862,-0.12,-0.02,1.03
26272,-0.9145,1.8316,2.1861,-0.12,-0.01,1.03
26281,-0.9130,1.8344,2.1871,-0.12,-0.01,1.02
26290,-0.9128,1.8323,2.1835,-0.12,-0.01,1.02
26299,-0.9158,1.8387,2.1852,-0.12,-0.02,1.02
26308,-0.9146,1.8332,2.1840,-0.12,-0.01,1.03
26317,-0.9166,1.8321,2.1865,-0.12,-0.01,1.02
26326,-0.9132,1.8332,2.1841,-0.12,-0.01,1.02
26335,-0.9148,1.8346,2.1864,-0.12,-0.02,1.03
26344,-0.9147,1.8341,2.1842,-0.12,-0.01,1.03
26353,-0.9155,1.8343,2.1848,-0.12,-0.01,1.03
26362,-0.9140,1.8328,2.1851,-0.12,-0.01,1.03
26371,-0.9183,1.8317,2.1837,-0.12,-0.01,1.03
26380,-0.9147,1.8330,2.1862,-0.12,-0.01,1.03
26389,-0.9152,1.8352,2.1842,-0.12,-0.01,1.02
26398,-0.9150,1.8320,2.1839,-0.12,-0.01,1.02
26407,-0.9083,1.8323,2.1854,-0.12,-0.02,1.03
26416,-0.9151,1.8336,2.1852,-0.12,-0.02,1.03
26425,-0.9142,1.8336,2.1852,-0.12,-0.01,1.03
26434,-0.9156,1.8336,2.1842,-0.12,-0.01,1.03
26443,-0.9141,1.8320,2.1860,-0.12,-0.01,1.03
26452,-0.9135,1.8312,2.1847,-0.12,-0.01,1.03
26461,-0.9142,1.8316,2.1841,-0.12,-0.01,1.02
26470,-0.9134,1.8317,2.1860,-0.12,-0.02,1.03
26479,-0.9143,1.8323,2.1843,-0.12,-0.02,1.03
26488,-0.9130,1.8326,2.1859,-0.12,-0.02,1.03
26497,-0.9133,1.8319,2.1849,-0.12,-0.01,1.02
26506,-0.9125,1.8327,2.1845,-0.12,-0.01,1.02
26515,-0.9135,1.8310,2.1870,-0.12,-0.01,1.02
26524,-0.9152,1.8318,2.1842,-0.12,-0.01,1.03
26533,-0.9142,1.8319,2.1874,-0.12,-0.01,1.03
26542,-0.9145,1.8329,2.1852,-0.12,-0.01,1.02
26551,-0.9136,1.8339,2.1863,-0.12,-0.02,1.03
26560,-0.9141,1.8313,2.1856,-0.12,-0.01,1.02
26569,-0.9135,1.8329,2.1844,-0.12,-0.01,1.02
26578,-0.9139,1.8325,2.1873,-0.12,-0.02,1.02
26587,-0.9133,1.8336,2.1837,-0.12,-0.01,1.02
26596,-0.9170,1.8314,2.1846,-0.12,-0.01,1.02
26605,-0.9150,1.8324,2.1849,-0.12,-0.01,1.02
26614,-0.9134,1.8328,2.1857,-0.12,-0.01,1.02
26623,-0.9164,1.8319,2.1864,-0.12,-0.01,1.03
26632,-0.9143,1.8305,2.1869,-0.12,-0.01,1.03
26641,-0.9151,1.8338,2.1859,-0.12,-0.01,1.03
26650,-0.9133,1.8319,2.1844,-0.12,-0.01,1.03
26659,-0.9143,1.8321,2.1843,-0.12,-0.01,1.03
26668,-0.9137,1.8322,2.1845,-0.12,-0.02,1.03
26677,-0.9147,1.8340,2.1844,-0.12,-0.01,1.02
26686,-0.9149,1.8332,2.1846,-0.12,-0.01,1.02
26695,-0.9135,1.8341,2.1859,-0.12,-0.01,1.03
26704,-0.9134,1.8350,2.1863,-0.12,-0.02,1.02
26713,-0.9153,1.8319,2.1827,-0.12,-0.01,1.03
26722,-0.9151,1.8326,2.1849,-0.12,-0.01,1.03
26731,-0.9161,1.8332,2.1850,-0.12,-0.02,1.03
26740,-0.9133,1.8332,2.1857,-0.12,-0.01,1.03
26749,-0.9138,1.8341,2.1855,-0.12,-0.01,1.03
26758,-0.9137,1.8328,2.1867,-0.12,-0.01,1.03
26767,-0.9134,1.8317,2.1875,-0.12,-0.01,1.02
26776,-0.9155,1.8344,2.1865,-0.12,-0.02,1.03
26785,-0.9131,1.8325,2.1870,-0.12,-0.02,1.03
26794,-0.9179,1.8338,2.1873,-0.12,-0.01,1.03
26803,-0.9179,1.8332,2.1843,-0.12,-0.01,1.02
26812,-0.9134,1.8350,2.1860,-0.12,-0.01,1.02
26821,-0.9158,1.8325,2.1882,-0.12,-0.01,1.03
26830,-0.9147,1.8340,2.1863,-0.12,-0.01,1.03
26839,-0.9150,1.8309,2.1867,-0.12,-0.01,1.03
26848,-0.9159,1.8314,2.1845,-0.12,-0.01,1.02
26857,-0.9137,1.8322,2.1849,-0.12,-0.02,1.03
26866,-0.9162,1.8324,2.1855,-0.12,-0.01,1.02
26875,-0.9135,1.8330,2.1868,-0.12,-0.01,1.02
26884,-0.9158,1.8327,2.1857,-0.12,-0.01,1.02
26893,-0.9122,1.8333,2.1868,-0.12,-0.02,1.03
26902,-0.9142,1.8333,2.1842,-0.12,-0.02,1.03
26911,-0.9122,1.8304,2.1839,-0.12,-0.02,1.03
26920,-0.9139,1.8339,2.1865,-0.12,-0.02,1.03
26929,-0.9135,1.8325,2.1852,-0.12,-0.01,1.03
26938,-0.9146,1.8318,2.1855,-0.12,-0.01,1.03
26947,-0.9129,1.8345,2.1856,-0.12,-0.01,1.03
26956,-0.9154,1.8335,2.1851,-0.12,-0.02,1.02
26965,-0.9164,1.8324,2.1863,-0.12,-0.02,1.02
26974,-0.9134,1.8328,2.1858,-0.12,-0.01,1.03
26983,-0.9142,1.8346,2.1859,-0.12,-0.01,1.02
26992,-0.9144,1.8343,2.1875,-0.12,-0.01,1.02
27001,-0.9145,1.8324,2.1859,-0.12,-0.01,1.03
27010,-0.9097,1.8329,2.1851,-0.12,-0.02,1.02
27019,-0.9158,1.8309,2.1860,-0.12,-0.01,1.03
27028,-0.9136,1.8307,2.1842,-0.12,-0.01,1.03
27037,-0.9145,1.8333,2.1861,-0.12,-0.02,1.03
27046,-0.9147,1.8319,2.1852,-0.12,-0.02,1.03
27055,-0.9140,1.8325,2.1869,-0.12,-0.02,1.03
27064,-0.9138,1.8321,2.1867,-0.12,-0.01,1.03
27073,-0.9136,1.8337,2.1842,-0.12,-0.01,1.02
27082,-0.9144,1.8339,2.1844,-0.12,-0.01,1.03
27091,-0.9134,1.8343,2.1856,-0.12,-0.01,1.03
27100,-0.9151,1.8322,2.1862,-0.12,-0.01,1.02
27109,-0.9132,1.8323,2.1832,-0.12,-0.02,1.03
27118,-0.9144,1.8326,2.1867,-0.12,-0.02,1.03
27127,-0.9143,1.8331,2.1848,-0.12,-0.02,1.03
27136,-0.9129,1.8315,2.1846,-0.12,-0.01,1.03
27145,-0.9132,1.8327,2.1845,-0.12,-0.02,1.02
27154,-0.9138,1.8325,2.1863,-0.12,-0.02,1.02
27163,-0.9141,1.8316,2.1875,-0.12,-0.01,1.03
27172,-0.9141,1.8327,2.1860,-0.12,-0.01,1.03
27181,-0.9137,1.8336,2.1844,-0.12,-0.01,1.03
27190,-0.9134,1.8331,2.1850,-0.12,-0.02,1.03
27199,-0.9128,1.8339,2.1846,-0.12,-0.01,1.03
27208,-0.9123,1.8333,2.1838,-0.12,-0.02,1.03
27217,-0.9140,1.8336,2.1856,-0.12,-0.02,1.02
27226,-0.9125,1.8316,2.1849,-0.12,-0.01,1.03
27235,-0.9151,1.8311,2.1845,-0.12,-0.01,1.02
27244,-0.9134,1.8319,2.1866,-0.12,-0.01,1.02
27253,-0.9122,1.8325,2.1869,-0.12,-0.02,1.02
27262,-0.9140,1.8323,2.1844,-0.12,-0.02,1.03
27271,-0.9143,1.8337,2.1866,-0.12,-0.02,1.03
27280,-0.9129,1.8318,2.1861,-0.12,-0.01,1.03
27289,-0.9168,1.8334,2.1851,-0.12,-0.01,1.03
27298,-0.9139,1.8338,2.1873,-0.12,-0.02,1.03
27307,-0.9133,1.8318,2.1836,-0.12,-0.02,1.03
27316,-0.9138,1.8319,2.1869,-0.12,-0.01,1.02
27325,-0.9147,1.8342,2.1848,-0.12,-0.02,1.03
27334,-0.9151,1.8326,2.1834,-0.12,-0.02,1.03
27343,-0.9142,1.8332,2.1857,-0.12,-0.02,1.03
27352,-0.9166,1.8331,2.1853,-0.12,-0.01,1.02
27361,-0.9161,1.8318,2.1852,-0.12,-0.01,1.02
27370,-0.9149,1.8328,2.1868,-0.12,-0.02,1.03
27379,-0.9148,1.8338,2.1866,-0.12,-0.01,1.02
27388,-0.9141,1.8335,2.1870,-0.12,-0.02,1.03
27397,-0.9144,1.8340,2.1848,-0.12,-0.02,1.03
27406,-0.9122,1.8320,2.1869,-0.12,-0.01,1.03
27415,-0.9135,1.8329,2.1861,-0.12,-0.01,1.02
27424,-0.9146,1.8335,2.1838,-0.12,-0.01,1.02
27433,-0.9151,1.8313,2.1858,-0.12,-0.02,1.03
27442,-0.9138,1.8305,2.1874,-0.12,-0.02,1.03
27451,-0.9159,1.8326,2.1846,-0.12,-0.01,1.03
27460,-0.9132,1.8340,2.1862,-0.12,-0.01,1.03
27469,-0.9125,1.8318,2.1841,-0.12,-0.02,1.03
27478,-0.9145,1.8307,2.1854,-0.12,-0.02,1.02
27487,-0.9147,1.8331,2.1854,-0.12,-0.02,1.02
27496,-0.9162,1.8343,2.1854,-0.12,-0.02,1.03
27505,-0.9153,1.8337,2.1862,-0.12,-0.02,1.03
27514,-0.9147,1.8318,2.1861,-0.12,-0.01,1.03
27523,-0.9161,1.8314,2.1847,-0.12,-0.01,1.03
27532,-0.9130,1.8327,2.1841,-0.12,-0.01,1.03
27541,-0.9140,1.8315,2.1855,-0.12,-0.01,1.02
27550,-0.9134,1.8322,2.1856,-0.12,-0.01,1.02
27559,-0.9132,1.8318,2.1842,-0.12,-0.01,1.02
27568,-0.9149,1.8350,2.1860,-0.12,-0.01,1.03
27577,-0.9156,1.8332,2.1864,-0.12,-0.01,1.03
27586,-0.9135,1.8327,2.1851,-0.12,-0.02,1.03
27595,-0.9147,1.8327,2.1852,-0.12,-0.01,1.03
27604,-0.9167,1.8313,2.1838,-0.12,-0.01,1.03
27613,-0.9139,1.8334,2.1862,-0.12,-0.01,1.03
27622,-0.9140,1.8327,2.1841,-0.12,-0.01,1.03
27631,-0.9138,1.8335,2.1873,-0.12,-0.02,1.03
27640,-0.9147,1.8319,2.1855,-0.12,-0.02,1.03
27649,-0.9127,1.8333,2.1849,-0.12,-0.01,1.03
27658,-0.9131,1.8315,2.1858,-0.12,-0.02,1.02
27667,-0.9149,1.8334,2.1859,-0.12,-0.02,1.02
27676,-0.9143,1.8326,2.1860,-0.12,-0.01,1.02
27685,-0.9140,1.8339,2.1874,-0.12,-0.01,1.02
27694,-0.9159,1.8333,2.1852,-0.12,-0.01,1.03
27703,-0.9144,1.8317,2.1863,-0.12,-0.01,1.03
27712,-0.9155,1.8343,2.1860,-0.12,-0.01,1.03
27721,-0.9148,1.8319,2.1867,-0.12,-0.02,1.03
27730,-0.9153,1.8342,2.1845,-0.12,-0.02,1.03
27739,-0.9168,1.8325,2.1863,-0.12,-0.01,1.02
27748,-0.9141,1.8314,2.1873,-0.12,-0.01,1.03
27757,-0.9140,1.8337,2.1834,-0.12,-0.01,1.02
27766,-0.9148,1.8303,2.1863,-0.12,-0.01,1.02
27775,-0.9159,1.8311,2.1862,-0.12,-0.01,1.03
27784,-0.9127,1.8327,2.1853,-0.12,-0.01,1.03
27793,-0.9145,1.8314,2.1853,-0.12,-0.01,1.03
27802,-0.9121,1.8320,2.1874,-0.12,-0.02,1.03
27811,-0.9152,1.8335,2.1872,-0.12,-0.01,1.03
27820,-0.9148,1.8326,2.1864,-0.12,-0.01,1.03
27829,-0.9154,1.8320,2.1847,-0.12,-0.01,1.03
27838,-0.9139,1.8324,2.1830,-0.12,-0.02,1.03
27847,-0.9134,1.8313,2.1854,-0.12,-0.01,1.02
27856,-0.9135,1.8337,2.1842,-0.12,-0.01,1.02
27865,-0.9129,1.8342,2.1860,-0.12,-0.01,1.03
27874,-0.9144,1.8325,2.1867,-0.12,-0.01,1.03
27883,-0.9159,1.8326,2.1862,-0.12,-0.01,1.03
27892,-0.9143,1.8331,2.1853,-0.12,-0.02,1.02
